,X,rt,trial_index,subject,form_assignment,stimulus,button_pressed,stimNum,topic,form,response,numeric_response
1,2,6681,2,0f27foeq2w,conventional,<p>Paris is the capital of France.</p>,1,20,Paris,proposition,literal,0
2,3,11757,3,0f27foeq2w,conventional,<p>Please clean up your room.</p>,1,17,clean,direct,literal,0
3,4,3093,4,0f27foeq2w,conventional,<p>I am six feet tall.</p>,1,22,tall,proposition,literal,0
4,5,8301,5,0f27foeq2w,conventional,<p>Please wash your clothes.</p>,1,16,laundry,direct,literal,0
5,6,4923,6,0f27foeq2w,conventional,<p>Please dice this onion.</p>,1,15,tomatoes,direct,literal,0
6,7,4864,7,0f27foeq2w,conventional,<p>My laptop is broken.</p>,1,5,laptop,nonconventional,literal,0
7,8,3270,8,0f27foeq2w,conventional,<p>The dog is named Skip.</p>,1,21,dog,proposition,literal,0
8,9,5677,9,0f27foeq2w,conventional,<p>Can you close that door?</p>,0,4,door,conventional,request,1
9,10,2343,10,0f27foeq2w,conventional,<p>Cats are a kind of mammal.</p>,1,24,cats,proposition,literal,0
10,11,2021,11,0f27foeq2w,conventional,<p>I am wearing a green hat.</p>,1,19,hat,proposition,literal,0
11,12,5586,12,0f27foeq2w,conventional,<p>My car isn't starting.</p>,1,1,car,nonconventional,literal,0
12,13,3590,13,0f27foeq2w,conventional,<p>Please turn off the television.</p>,1,14,television,direct,literal,0
13,14,13522,14,0f27foeq2w,conventional,<p>Please refill my cup.</p>,0,13,salt,direct,request,1
14,15,1570,15,0f27foeq2w,conventional,<p>Can you lift that box?</p>,0,3,box,conventional,request,1
15,16,2175,16,0f27foeq2w,conventional,<p>Can you change the temperature?</p>,0,12,temperature,conventional,request,1
16,17,1802,17,0f27foeq2w,conventional,<p>My back is really sore.</p>,1,2,back,nonconventional,literal,0
17,18,5784,18,0f27foeq2w,conventional,<p>Can you say that in Spanish?</p>,1,10,spanish,conventional,literal,0
18,19,4364,19,0f27foeq2w,conventional,<p>Can you play the piano?</p>,1,8,piano,conventional,literal,0
19,20,1939,20,0f27foeq2w,conventional,<p>My soup is cold.</p>,1,9,soup,nonconventional,literal,0
20,21,2716,21,0f27foeq2w,conventional,<p>The United States is south of Canada.</p>,1,23,usa,proposition,literal,0
21,22,3202,22,0f27foeq2w,conventional,<p>My phone is dying.</p>,1,7,phone,nonconventional,literal,0
22,23,2712,23,0f27foeq2w,conventional,<p>Can you open that window?</p>,0,11,window,conventional,request,1
23,24,8679,24,0f27foeq2w,conventional,<p>My office is really hot.</p>,1,6,office,nonconventional,literal,0
24,25,33932,25,0f27foeq2w,conventional,<p>Please fix my faucet.</p>,1,18,faucet,direct,literal,0
25,32,38887,2,0k8qceb2g7,non_conventional,<p>Please clean up your room.</p>,0,17,clean,direct,request,1
26,33,4569,3,0k8qceb2g7,non_conventional,<p>My back is really sore.</p>,1,2,back,nonconventional,literal,0
27,34,12963,4,0k8qceb2g7,non_conventional,<p>The United States is south of Canada.</p>,1,23,usa,proposition,literal,0
28,35,2839,5,0k8qceb2g7,non_conventional,<p>Please turn off the television.</p>,0,14,television,direct,request,1
29,36,11242,6,0k8qceb2g7,non_conventional,<p>My car isn't starting.</p>,1,1,car,nonconventional,literal,0
30,37,1537,7,0k8qceb2g7,non_conventional,<p>Please wash your clothes.</p>,0,16,laundry,direct,request,1
31,38,1002,8,0k8qceb2g7,non_conventional,<p>Can you say that in Spanish?</p>,0,10,spanish,conventional,request,1
32,39,3030,9,0k8qceb2g7,non_conventional,<p>Please fix my faucet.</p>,0,18,faucet,direct,request,1
33,40,1479,10,0k8qceb2g7,non_conventional,<p>My laptop is broken.</p>,1,5,laptop,nonconventional,literal,0
34,41,4584,11,0k8qceb2g7,non_conventional,<p>The dog is named Skip.</p>,1,21,dog,proposition,literal,0
35,42,7510,12,0k8qceb2g7,non_conventional,<p>Please refill my cup.</p>,0,13,salt,direct,request,1
36,43,4968,13,0k8qceb2g7,non_conventional,<p>Can you play the piano?</p>,0,8,piano,conventional,request,1
37,44,1671,14,0k8qceb2g7,non_conventional,<p>I am wearing a green hat.</p>,1,19,hat,proposition,literal,0
38,45,2229,15,0k8qceb2g7,non_conventional,<p>Paris is the capital of France.</p>,1,20,Paris,proposition,literal,0
39,46,2494,16,0k8qceb2g7,non_conventional,<p>I am six feet tall.</p>,1,22,tall,proposition,literal,0
40,47,1383,17,0k8qceb2g7,non_conventional,<p>Can you lift that box?</p>,0,3,box,conventional,request,1
41,48,2898,18,0k8qceb2g7,non_conventional,<p>Cats are a kind of mammal.</p>,1,24,cats,proposition,literal,0
42,49,1611,19,0k8qceb2g7,non_conventional,<p>Can you close that door?</p>,0,4,door,conventional,request,1
43,50,1861,20,0k8qceb2g7,non_conventional,<p>My office is really hot.</p>,1,6,office,nonconventional,literal,0
44,51,1574,21,0k8qceb2g7,non_conventional,<p>My phone is dying.</p>,1,7,phone,nonconventional,literal,0
45,52,1385,22,0k8qceb2g7,non_conventional,<p>Can you open that window?</p>,0,11,window,conventional,request,1
46,53,1711,23,0k8qceb2g7,non_conventional,<p>Please dice this onion.</p>,0,15,tomatoes,direct,request,1
47,54,2665,24,0k8qceb2g7,non_conventional,<p>Can you change the temperature?</p>,0,12,temperature,conventional,request,1
48,55,1514,25,0k8qceb2g7,non_conventional,<p>My soup is cold.</p>,1,9,soup,nonconventional,literal,0
49,62,2063,2,0luzqthyxo,conventional,<p>Please dice this onion.</p>,0,15,tomatoes,direct,request,1
50,63,1230,3,0luzqthyxo,conventional,<p>Please fix my faucet.</p>,0,18,faucet,direct,request,1
51,64,5136,4,0luzqthyxo,conventional,<p>Can you lift that box?</p>,1,3,box,conventional,literal,0
52,65,1311,5,0luzqthyxo,conventional,<p>The United States is south of Canada.</p>,1,23,usa,proposition,literal,0
53,66,951,6,0luzqthyxo,conventional,<p>Cats are a kind of mammal.</p>,1,24,cats,proposition,literal,0
54,67,1047,7,0luzqthyxo,conventional,<p>My soup is cold.</p>,1,9,soup,nonconventional,literal,0
55,68,3552,8,0luzqthyxo,conventional,<p>My phone is dying.</p>,0,7,phone,nonconventional,request,1
56,69,1319,9,0luzqthyxo,conventional,<p>My office is really hot.</p>,0,6,office,nonconventional,request,1
57,70,1182,10,0luzqthyxo,conventional,<p>Please refill my cup.</p>,0,13,salt,direct,request,1
58,71,1904,11,0luzqthyxo,conventional,<p>My laptop is broken.</p>,1,5,laptop,nonconventional,literal,0
59,72,1408,12,0luzqthyxo,conventional,<p>I am wearing a green hat.</p>,1,19,hat,proposition,literal,0
60,73,1544,13,0luzqthyxo,conventional,<p>Can you open that window?</p>,0,11,window,conventional,request,1
61,74,1671,14,0luzqthyxo,conventional,<p>My car isn't starting.</p>,0,1,car,nonconventional,request,1
62,75,967,15,0luzqthyxo,conventional,<p>Can you close that door?</p>,0,4,door,conventional,request,1
63,76,2296,16,0luzqthyxo,conventional,<p>My back is really sore.</p>,0,2,back,nonconventional,request,1
64,77,926,17,0luzqthyxo,conventional,<p>Paris is the capital of France.</p>,1,20,Paris,proposition,literal,0
65,78,1080,18,0luzqthyxo,conventional,<p>Please turn off the television.</p>,0,14,television,direct,request,1
66,79,903,19,0luzqthyxo,conventional,<p>Can you change the temperature?</p>,0,12,temperature,conventional,request,1
67,80,1015,20,0luzqthyxo,conventional,<p>Can you say that in Spanish?</p>,0,10,spanish,conventional,request,1
68,81,3016,21,0luzqthyxo,conventional,<p>I am six feet tall.</p>,1,22,tall,proposition,literal,0
69,82,1232,22,0luzqthyxo,conventional,<p>The dog is named Skip.</p>,1,21,dog,proposition,literal,0
70,83,1111,23,0luzqthyxo,conventional,<p>Please wash your clothes.</p>,0,16,laundry,direct,request,1
71,84,879,24,0luzqthyxo,conventional,<p>Please clean up your room.</p>,0,17,clean,direct,request,1
72,85,848,25,0luzqthyxo,conventional,<p>Can you play the piano?</p>,0,8,piano,conventional,request,1
73,92,2405,2,0vuatp23nk,non_conventional,<p>Please dice this onion.</p>,0,15,tomatoes,direct,request,1
74,93,1245,3,0vuatp23nk,non_conventional,<p>The dog is named Skip.</p>,1,21,dog,proposition,literal,0
75,94,932,4,0vuatp23nk,non_conventional,<p>Please refill my cup.</p>,0,13,salt,direct,request,1
76,95,1536,5,0vuatp23nk,non_conventional,<p>Can you play the piano?</p>,1,8,piano,conventional,literal,0
77,96,1670,6,0vuatp23nk,non_conventional,<p>Can you say that in Spanish?</p>,0,10,spanish,conventional,request,1
78,97,2132,7,0vuatp23nk,non_conventional,<p>My car isn't starting.</p>,0,1,car,nonconventional,request,1
79,98,1215,8,0vuatp23nk,non_conventional,<p>Paris is the capital of France.</p>,1,20,Paris,proposition,literal,0
80,99,980,9,0vuatp23nk,non_conventional,<p>My back is really sore.</p>,1,2,back,nonconventional,literal,0
81,100,885,10,0vuatp23nk,non_conventional,<p>I am six feet tall.</p>,1,22,tall,proposition,literal,0
82,101,1050,11,0vuatp23nk,non_conventional,<p>The United States is south of Canada.</p>,1,23,usa,proposition,literal,0
83,102,894,12,0vuatp23nk,non_conventional,<p>Can you open that window?</p>,0,11,window,conventional,request,1
84,103,822,13,0vuatp23nk,non_conventional,<p>Please turn off the television.</p>,0,14,television,direct,request,1
85,104,808,14,0vuatp23nk,non_conventional,<p>Can you change the temperature?</p>,0,12,temperature,conventional,request,1
86,105,745,15,0vuatp23nk,non_conventional,<p>Can you lift that box?</p>,0,3,box,conventional,request,1
87,106,869,16,0vuatp23nk,non_conventional,<p>My soup is cold.</p>,1,9,soup,nonconventional,literal,0
88,107,1771,17,0vuatp23nk,non_conventional,<p>My phone is dying.</p>,1,7,phone,nonconventional,literal,0
89,108,845,18,0vuatp23nk,non_conventional,<p>My office is really hot.</p>,1,6,office,nonconventional,literal,0
90,109,909,19,0vuatp23nk,non_conventional,<p>My laptop is broken.</p>,1,5,laptop,nonconventional,literal,0
91,110,837,20,0vuatp23nk,non_conventional,<p>Can you close that door?</p>,0,4,door,conventional,request,1
92,111,1066,21,0vuatp23nk,non_conventional,<p>I am wearing a green hat.</p>,1,19,hat,proposition,literal,0
93,112,987,22,0vuatp23nk,non_conventional,<p>Please fix my faucet.</p>,0,18,faucet,direct,request,1
94,113,649,23,0vuatp23nk,non_conventional,<p>Please wash your clothes.</p>,0,16,laundry,direct,request,1
95,114,1003,24,0vuatp23nk,non_conventional,<p>Cats are a kind of mammal.</p>,1,24,cats,proposition,literal,0
96,115,1025,25,0vuatp23nk,non_conventional,<p>Please clean up your room.</p>,0,17,clean,direct,request,1
97,122,10369,2,0wvtqwa3c6,conventional,<p>Please clean up your room.</p>,1,17,clean,direct,literal,0
98,123,3635,3,0wvtqwa3c6,conventional,<p>Paris is the capital of France.</p>,1,20,Paris,proposition,literal,0
99,124,3449,4,0wvtqwa3c6,conventional,<p>Can you open that window?</p>,0,11,window,conventional,request,1
100,125,2779,5,0wvtqwa3c6,conventional,<p>Can you change the temperature?</p>,0,12,temperature,conventional,request,1
101,126,2614,6,0wvtqwa3c6,conventional,<p>Please dice this onion.</p>,0,15,tomatoes,direct,request,1
102,127,2363,7,0wvtqwa3c6,conventional,<p>My laptop is broken.</p>,1,5,laptop,nonconventional,literal,0
103,128,2614,8,0wvtqwa3c6,conventional,<p>Please refill my cup.</p>,0,13,salt,direct,request,1
104,129,2396,9,0wvtqwa3c6,conventional,<p>Can you close that door?</p>,0,4,door,conventional,request,1
105,130,2641,10,0wvtqwa3c6,conventional,<p>My office is really hot.</p>,1,6,office,nonconventional,literal,0
106,131,2804,11,0wvtqwa3c6,conventional,<p>My car isn't starting.</p>,1,1,car,nonconventional,literal,0
107,132,2221,12,0wvtqwa3c6,conventional,<p>Please turn off the television.</p>,0,14,television,direct,request,1
108,133,1637,13,0wvtqwa3c6,conventional,<p>I am six feet tall.</p>,1,22,tall,proposition,literal,0
109,134,7627,14,0wvtqwa3c6,conventional,<p>Please wash your clothes.</p>,0,16,laundry,direct,request,1
110,135,2033,15,0wvtqwa3c6,conventional,<p>Can you play the piano?</p>,0,8,piano,conventional,request,1
111,136,12610,16,0wvtqwa3c6,conventional,<p>The United States is south of Canada.</p>,1,23,usa,proposition,literal,0
112,137,7850,17,0wvtqwa3c6,conventional,<p>The dog is named Skip.</p>,1,21,dog,proposition,literal,0
113,138,2339,18,0wvtqwa3c6,conventional,<p>I am wearing a green hat.</p>,1,19,hat,proposition,literal,0
114,139,4227,19,0wvtqwa3c6,conventional,<p>My phone is dying.</p>,1,7,phone,nonconventional,literal,0
115,140,1602,20,0wvtqwa3c6,conventional,<p>Please fix my faucet.</p>,0,18,faucet,direct,request,1
116,141,1826,21,0wvtqwa3c6,conventional,<p>Can you lift that box?</p>,0,3,box,conventional,request,1
117,142,4632,22,0wvtqwa3c6,conventional,<p>My back is really sore.</p>,1,2,back,nonconventional,literal,0
118,143,2431,23,0wvtqwa3c6,conventional,<p>Cats are a kind of mammal.</p>,1,24,cats,proposition,literal,0
119,144,5187,24,0wvtqwa3c6,conventional,<p>Can you say that in Spanish?</p>,0,10,spanish,conventional,request,1
120,145,3104,25,0wvtqwa3c6,conventional,<p>My soup is cold.</p>,1,9,soup,nonconventional,literal,0
121,152,2297,2,14lcw1j1bm,conventional,<p>I am wearing a green hat.</p>,1,19,hat,proposition,literal,0
122,153,1427,3,14lcw1j1bm,conventional,<p>Please dice this onion.</p>,0,15,tomatoes,direct,request,1
123,154,2297,4,14lcw1j1bm,conventional,<p>Paris is the capital of France.</p>,1,20,Paris,proposition,literal,0
124,155,3229,5,14lcw1j1bm,conventional,<p>My office is really hot.</p>,1,6,office,nonconventional,literal,0
125,156,2057,6,14lcw1j1bm,conventional,<p>The dog is named Skip.</p>,1,21,dog,proposition,literal,0
126,157,2393,7,14lcw1j1bm,conventional,<p>My car isn't starting.</p>,1,1,car,nonconventional,literal,0
127,158,884,8,14lcw1j1bm,conventional,<p>Please wash your clothes.</p>,0,16,laundry,direct,request,1
128,159,956,9,14lcw1j1bm,conventional,<p>Cats are a kind of mammal.</p>,1,24,cats,proposition,literal,0
129,160,1423,10,14lcw1j1bm,conventional,<p>My laptop is broken.</p>,1,5,laptop,nonconventional,literal,0
130,161,1549,11,14lcw1j1bm,conventional,<p>Can you open that window?</p>,0,11,window,conventional,request,1
131,162,932,12,14lcw1j1bm,conventional,<p>Please clean up your room.</p>,0,17,clean,direct,request,1
132,163,1093,13,14lcw1j1bm,conventional,<p>My back is really sore.</p>,1,2,back,nonconventional,literal,0
133,164,690,14,14lcw1j1bm,conventional,<p>Can you lift that box?</p>,0,3,box,conventional,request,1
134,165,1155,15,14lcw1j1bm,conventional,<p>Please fix my faucet.</p>,0,18,faucet,direct,request,1
135,166,1067,16,14lcw1j1bm,conventional,<p>My soup is cold.</p>,1,9,soup,nonconventional,literal,0
136,167,960,17,14lcw1j1bm,conventional,<p>Please refill my cup.</p>,0,13,salt,direct,request,1
137,168,2840,18,14lcw1j1bm,conventional,<p>The United States is south of Canada.</p>,1,23,usa,proposition,literal,0
138,169,987,19,14lcw1j1bm,conventional,<p>Can you close that door?</p>,0,4,door,conventional,request,1
139,170,1017,20,14lcw1j1bm,conventional,<p>I am six feet tall.</p>,1,22,tall,proposition,literal,0
140,171,1242,21,14lcw1j1bm,conventional,<p>Can you change the temperature?</p>,0,12,temperature,conventional,request,1
141,172,1119,22,14lcw1j1bm,conventional,<p>Can you say that in Spanish?</p>,0,10,spanish,conventional,request,1
142,173,887,23,14lcw1j1bm,conventional,<p>Please turn off the television.</p>,0,14,television,direct,request,1
143,174,6103,24,14lcw1j1bm,conventional,<p>My phone is dying.</p>,1,7,phone,nonconventional,literal,0
144,175,721,25,14lcw1j1bm,conventional,<p>Can you play the piano?</p>,0,8,piano,conventional,request,1
145,182,2318,2,16l7m3hry0,non_conventional,<p>Please wash your clothes.</p>,0,16,laundry,direct,request,1
146,183,1543,3,16l7m3hry0,non_conventional,<p>Please dice this onion.</p>,0,15,tomatoes,direct,request,1
147,184,2303,4,16l7m3hry0,non_conventional,<p>Can you lift that box?</p>,0,3,box,conventional,request,1
148,185,1875,5,16l7m3hry0,non_conventional,<p>My soup is cold.</p>,1,9,soup,nonconventional,literal,0
149,186,1166,6,16l7m3hry0,non_conventional,<p>Can you close that door?</p>,0,4,door,conventional,request,1
150,187,1264,7,16l7m3hry0,non_conventional,<p>My phone is dying.</p>,1,7,phone,nonconventional,literal,0
151,188,1262,8,16l7m3hry0,non_conventional,<p>My laptop is broken.</p>,1,5,laptop,nonconventional,literal,0
152,189,1353,9,16l7m3hry0,non_conventional,<p>The dog is named Skip.</p>,1,21,dog,proposition,literal,0
153,190,1093,10,16l7m3hry0,non_conventional,<p>I am six feet tall.</p>,1,22,tall,proposition,literal,0
154,191,1361,11,16l7m3hry0,non_conventional,<p>Please clean up your room.</p>,0,17,clean,direct,request,1
155,192,1738,12,16l7m3hry0,non_conventional,<p>Can you say that in Spanish?</p>,0,10,spanish,conventional,request,1
156,193,2463,13,16l7m3hry0,non_conventional,<p>My back is really sore.</p>,1,2,back,nonconventional,literal,0
157,194,1344,14,16l7m3hry0,non_conventional,<p>Paris is the capital of France.</p>,1,20,Paris,proposition,literal,0
158,195,1505,15,16l7m3hry0,non_conventional,<p>Please refill my cup.</p>,0,13,salt,direct,request,1
159,196,1134,16,16l7m3hry0,non_conventional,<p>Please turn off the television.</p>,0,14,television,direct,request,1
160,197,1312,17,16l7m3hry0,non_conventional,<p>My car isn't starting.</p>,1,1,car,nonconventional,literal,0
161,198,1142,18,16l7m3hry0,non_conventional,<p>Please fix my faucet.</p>,0,18,faucet,direct,request,1
162,199,2215,19,16l7m3hry0,non_conventional,<p>My office is really hot.</p>,1,6,office,nonconventional,literal,0
163,200,2025,20,16l7m3hry0,non_conventional,<p>Cats are a kind of mammal.</p>,1,24,cats,proposition,literal,0
164,201,1523,21,16l7m3hry0,non_conventional,<p>Can you change the temperature?</p>,0,12,temperature,conventional,request,1
165,202,1553,22,16l7m3hry0,non_conventional,<p>The United States is south of Canada.</p>,1,23,usa,proposition,literal,0
166,203,1900,23,16l7m3hry0,non_conventional,<p>I am wearing a green hat.</p>,1,19,hat,proposition,literal,0
167,204,1069,24,16l7m3hry0,non_conventional,<p>Can you open that window?</p>,0,11,window,conventional,request,1
168,205,877,25,16l7m3hry0,non_conventional,<p>Can you play the piano?</p>,0,8,piano,conventional,request,1
169,212,2214,2,1hw83fpb74,conventional,<p>Please refill my cup.</p>,0,13,salt,direct,request,1
170,213,2126,3,1hw83fpb74,conventional,<p>Can you close that door?</p>,0,4,door,conventional,request,1
171,214,2231,4,1hw83fpb74,conventional,<p>Can you say that in Spanish?</p>,0,10,spanish,conventional,request,1
172,215,1766,5,1hw83fpb74,conventional,<p>My laptop is broken.</p>,1,5,laptop,nonconventional,literal,0
173,216,1614,6,1hw83fpb74,conventional,<p>My back is really sore.</p>,1,2,back,nonconventional,literal,0
174,217,1270,7,1hw83fpb74,conventional,<p>My phone is dying.</p>,1,7,phone,nonconventional,literal,0
175,218,1318,8,1hw83fpb74,conventional,<p>Please turn off the television.</p>,0,14,television,direct,request,1
176,219,1294,9,1hw83fpb74,conventional,<p>Paris is the capital of France.</p>,1,20,Paris,proposition,literal,0
177,220,1134,10,1hw83fpb74,conventional,<p>Please fix my faucet.</p>,0,18,faucet,direct,request,1
178,221,1479,11,1hw83fpb74,conventional,<p>Please wash your clothes.</p>,0,16,laundry,direct,request,1
179,222,1471,12,1hw83fpb74,conventional,<p>Can you change the temperature?</p>,0,12,temperature,conventional,request,1
180,223,1023,13,1hw83fpb74,conventional,<p>Please dice this onion.</p>,0,15,tomatoes,direct,request,1
181,224,1543,14,1hw83fpb74,conventional,<p>My soup is cold.</p>,1,9,soup,nonconventional,literal,0
182,225,1663,15,1hw83fpb74,conventional,<p>My car isn't starting.</p>,1,1,car,nonconventional,literal,0
183,226,1265,16,1hw83fpb74,conventional,<p>Cats are a kind of mammal.</p>,1,24,cats,proposition,literal,0
184,227,1245,17,1hw83fpb74,conventional,<p>Can you lift that box?</p>,0,3,box,conventional,request,1
185,228,2550,18,1hw83fpb74,conventional,<p>My office is really hot.</p>,1,6,office,nonconventional,literal,0
186,229,1750,19,1hw83fpb74,conventional,<p>I am six feet tall.</p>,1,22,tall,proposition,literal,0
187,230,3079,20,1hw83fpb74,conventional,<p>Can you play the piano?</p>,1,8,piano,conventional,literal,0
188,231,1727,21,1hw83fpb74,conventional,<p>Can you open that window?</p>,0,11,window,conventional,request,1
189,232,1343,22,1hw83fpb74,conventional,<p>Please clean up your room.</p>,0,17,clean,direct,request,1
190,233,1543,23,1hw83fpb74,conventional,<p>I am wearing a green hat.</p>,1,19,hat,proposition,literal,0
191,234,1870,24,1hw83fpb74,conventional,<p>The dog is named Skip.</p>,1,21,dog,proposition,literal,0
192,235,1151,25,1hw83fpb74,conventional,<p>The United States is south of Canada.</p>,1,23,usa,proposition,literal,0
193,242,10369,2,1x3l1vb90n,non_conventional,<p>Can you change the temperature?</p>,1,12,temperature,conventional,literal,0
194,243,4409,3,1x3l1vb90n,non_conventional,<p>My back is really sore.</p>,0,2,back,nonconventional,request,1
195,244,4189,4,1x3l1vb90n,non_conventional,<p>My car isn't starting.</p>,1,1,car,nonconventional,literal,0
196,245,4918,5,1x3l1vb90n,non_conventional,<p>Cats are a kind of mammal.</p>,1,24,cats,proposition,literal,0
197,246,7014,6,1x3l1vb90n,non_conventional,<p>Can you say that in Spanish?</p>,1,10,spanish,conventional,literal,0
198,247,6950,7,1x3l1vb90n,non_conventional,<p>My phone is dying.</p>,0,7,phone,nonconventional,request,1
199,248,2276,8,1x3l1vb90n,non_conventional,<p>Please clean up your room.</p>,0,17,clean,direct,request,1
200,249,2447,9,1x3l1vb90n,non_conventional,<p>My laptop is broken.</p>,1,5,laptop,nonconventional,literal,0
201,250,2876,10,1x3l1vb90n,non_conventional,<p>Can you lift that box?</p>,0,3,box,conventional,request,1
202,251,2407,11,1x3l1vb90n,non_conventional,<p>Please wash your clothes.</p>,0,16,laundry,direct,request,1
203,252,2305,12,1x3l1vb90n,non_conventional,<p>Can you play the piano?</p>,0,8,piano,conventional,request,1
204,253,32432,13,1x3l1vb90n,non_conventional,<p>The United States is south of Canada.</p>,1,23,usa,proposition,literal,0
205,254,2149,14,1x3l1vb90n,non_conventional,<p>The dog is named Skip.</p>,1,21,dog,proposition,literal,0
206,255,2317,15,1x3l1vb90n,non_conventional,<p>Please refill my cup.</p>,0,13,salt,direct,request,1
207,256,5285,16,1x3l1vb90n,non_conventional,<p>I am six feet tall.</p>,1,22,tall,proposition,literal,0
208,257,2430,17,1x3l1vb90n,non_conventional,<p>Please turn off the television.</p>,0,14,television,direct,request,1
209,258,47295,18,1x3l1vb90n,non_conventional,<p>Please dice this onion.</p>,0,15,tomatoes,direct,request,1
210,259,1496,19,1x3l1vb90n,non_conventional,<p>Can you close that door?</p>,0,4,door,conventional,request,1
211,260,2822,20,1x3l1vb90n,non_conventional,<p>My soup is cold.</p>,1,9,soup,nonconventional,literal,0
212,261,1901,21,1x3l1vb90n,non_conventional,<p>Can you open that window?</p>,0,11,window,conventional,request,1
213,262,2734,22,1x3l1vb90n,non_conventional,<p>I am wearing a green hat.</p>,1,19,hat,proposition,literal,0
214,263,3485,23,1x3l1vb90n,non_conventional,<p>My office is really hot.</p>,1,6,office,nonconventional,literal,0
215,264,4804,24,1x3l1vb90n,non_conventional,<p>Paris is the capital of France.</p>,1,20,Paris,proposition,literal,0
216,265,1855,25,1x3l1vb90n,non_conventional,<p>Please fix my faucet.</p>,0,18,faucet,direct,request,1
217,272,2011,2,2xn809g0sy,non_conventional,<p>Can you close that door?</p>,0,4,door,conventional,request,1
218,273,1247,3,2xn809g0sy,non_conventional,<p>Can you play the piano?</p>,0,8,piano,conventional,request,1
219,274,1243,4,2xn809g0sy,non_conventional,<p>My phone is dying.</p>,1,7,phone,nonconventional,literal,0
220,275,1579,5,2xn809g0sy,non_conventional,<p>My laptop is broken.</p>,1,5,laptop,nonconventional,literal,0
221,276,3619,6,2xn809g0sy,non_conventional,<p>Please clean up your room.</p>,0,17,clean,direct,request,1
222,277,1186,7,2xn809g0sy,non_conventional,<p>Cats are a kind of mammal.</p>,1,24,cats,proposition,literal,0
223,278,1032,8,2xn809g0sy,non_conventional,<p>I am six feet tall.</p>,1,22,tall,proposition,literal,0
224,279,919,9,2xn809g0sy,non_conventional,<p>Can you lift that box?</p>,0,3,box,conventional,request,1
225,280,1237,10,2xn809g0sy,non_conventional,<p>My soup is cold.</p>,1,9,soup,nonconventional,literal,0
226,281,1263,11,2xn809g0sy,non_conventional,<p>Please wash your clothes.</p>,0,16,laundry,direct,request,1
227,282,1211,12,2xn809g0sy,non_conventional,<p>My car isn't starting.</p>,1,1,car,nonconventional,literal,0
228,283,2410,13,2xn809g0sy,non_conventional,<p>Please fix my faucet.</p>,0,18,faucet,direct,request,1
229,284,973,14,2xn809g0sy,non_conventional,<p>Please turn off the television.</p>,0,14,television,direct,request,1
230,285,1053,15,2xn809g0sy,non_conventional,<p>Can you change the temperature?</p>,0,12,temperature,conventional,request,1
231,286,1461,16,2xn809g0sy,non_conventional,<p>My back is really sore.</p>,1,2,back,nonconventional,literal,0
232,287,1048,17,2xn809g0sy,non_conventional,<p>Paris is the capital of France.</p>,1,20,Paris,proposition,literal,0
233,288,875,18,2xn809g0sy,non_conventional,<p>The United States is south of Canada.</p>,1,23,usa,proposition,literal,0
234,289,951,19,2xn809g0sy,non_conventional,<p>My office is really hot.</p>,1,6,office,nonconventional,literal,0
235,290,1098,20,2xn809g0sy,non_conventional,<p>Can you say that in Spanish?</p>,0,10,spanish,conventional,request,1
236,291,1013,21,2xn809g0sy,non_conventional,<p>Please refill my cup.</p>,0,13,salt,direct,request,1
237,292,2721,22,2xn809g0sy,non_conventional,<p>Please dice this onion.</p>,0,15,tomatoes,direct,request,1
238,293,1149,23,2xn809g0sy,non_conventional,<p>I am wearing a green hat.</p>,1,19,hat,proposition,literal,0
239,294,861,24,2xn809g0sy,non_conventional,<p>Can you open that window?</p>,0,11,window,conventional,request,1
240,295,1098,25,2xn809g0sy,non_conventional,<p>The dog is named Skip.</p>,1,21,dog,proposition,literal,0
241,302,3580,2,32cv20ytda,non_conventional,<p>Please fix my faucet.</p>,0,18,faucet,direct,request,1
242,303,1378,3,32cv20ytda,non_conventional,<p>The United States is south of Canada.</p>,1,23,usa,proposition,literal,0
243,304,1382,4,32cv20ytda,non_conventional,<p>Please dice this onion.</p>,0,15,tomatoes,direct,request,1
244,305,1543,5,32cv20ytda,non_conventional,<p>My back is really sore.</p>,1,2,back,nonconventional,literal,0
245,306,1900,6,32cv20ytda,non_conventional,<p>My soup is cold.</p>,1,9,soup,nonconventional,literal,0
246,307,908,7,32cv20ytda,non_conventional,<p>My office is really hot.</p>,1,6,office,nonconventional,literal,0
247,308,1366,8,32cv20ytda,non_conventional,<p>My car isn't starting.</p>,1,1,car,nonconventional,literal,0
248,309,1003,9,32cv20ytda,non_conventional,<p>Can you say that in Spanish?</p>,0,10,spanish,conventional,request,1
249,310,1198,10,32cv20ytda,non_conventional,<p>Please refill my cup.</p>,0,13,salt,direct,request,1
250,311,1224,11,32cv20ytda,non_conventional,<p>Can you lift that box?</p>,0,3,box,conventional,request,1
251,312,1295,12,32cv20ytda,non_conventional,<p>Please wash your clothes.</p>,0,16,laundry,direct,request,1
252,313,1213,13,32cv20ytda,non_conventional,<p>Can you play the piano?</p>,0,8,piano,conventional,request,1
253,314,1296,14,32cv20ytda,non_conventional,<p>My laptop is broken.</p>,1,5,laptop,nonconventional,literal,0
254,315,3478,15,32cv20ytda,non_conventional,<p>Please turn off the television.</p>,0,14,television,direct,request,1
255,316,2338,16,32cv20ytda,non_conventional,<p>Cats are a kind of mammal.</p>,1,24,cats,proposition,literal,0
256,317,2063,17,32cv20ytda,non_conventional,<p>Please clean up your room.</p>,0,17,clean,direct,request,1
257,318,5984,18,32cv20ytda,non_conventional,<p>Can you close that door?</p>,0,4,door,conventional,request,1
258,319,909,19,32cv20ytda,non_conventional,<p>Can you open that window?</p>,0,11,window,conventional,request,1
259,320,958,20,32cv20ytda,non_conventional,<p>The dog is named Skip.</p>,1,21,dog,proposition,literal,0
260,321,1212,21,32cv20ytda,non_conventional,<p>My phone is dying.</p>,1,7,phone,nonconventional,literal,0
261,322,950,22,32cv20ytda,non_conventional,<p>I am wearing a green hat.</p>,1,19,hat,proposition,literal,0
262,323,993,23,32cv20ytda,non_conventional,<p>I am six feet tall.</p>,1,22,tall,proposition,literal,0
263,324,1006,24,32cv20ytda,non_conventional,<p>Can you change the temperature?</p>,0,12,temperature,conventional,request,1
264,325,1226,25,32cv20ytda,non_conventional,<p>Paris is the capital of France.</p>,1,20,Paris,proposition,literal,0
265,332,3889,2,4bupbgp7pb,non_conventional,<p>My phone is dying.</p>,1,7,phone,nonconventional,literal,0
266,333,3131,3,4bupbgp7pb,non_conventional,<p>My car isn't starting.</p>,1,1,car,nonconventional,literal,0
267,334,4294,4,4bupbgp7pb,non_conventional,<p>The United States is south of Canada.</p>,1,23,usa,proposition,literal,0
268,335,1998,5,4bupbgp7pb,non_conventional,<p>Please fix my faucet.</p>,0,18,faucet,direct,request,1
269,336,2391,6,4bupbgp7pb,non_conventional,<p>My back is really sore.</p>,1,2,back,nonconventional,literal,0
270,337,1854,7,4bupbgp7pb,non_conventional,<p>My laptop is broken.</p>,1,5,laptop,nonconventional,literal,0
271,338,1953,8,4bupbgp7pb,non_conventional,<p>Can you change the temperature?</p>,0,12,temperature,conventional,request,1
272,339,3221,9,4bupbgp7pb,non_conventional,<p>The dog is named Skip.</p>,1,21,dog,proposition,literal,0
273,340,4384,10,4bupbgp7pb,non_conventional,<p>Please wash your clothes.</p>,0,16,laundry,direct,request,1
274,341,3991,11,4bupbgp7pb,non_conventional,<p>Can you lift that box?</p>,1,3,box,conventional,literal,0
275,342,7254,12,4bupbgp7pb,non_conventional,<p>Can you play the piano?</p>,1,8,piano,conventional,literal,0
276,343,3395,13,4bupbgp7pb,non_conventional,<p>Can you say that in Spanish?</p>,1,10,spanish,conventional,literal,0
277,344,2091,14,4bupbgp7pb,non_conventional,<p>I am six feet tall.</p>,1,22,tall,proposition,literal,0
278,345,2909,15,4bupbgp7pb,non_conventional,<p>My office is really hot.</p>,1,6,office,nonconventional,literal,0
279,346,1347,16,4bupbgp7pb,non_conventional,<p>I am wearing a green hat.</p>,1,19,hat,proposition,literal,0
280,347,1620,17,4bupbgp7pb,non_conventional,<p>Please clean up your room.</p>,0,17,clean,direct,request,1
281,348,1584,18,4bupbgp7pb,non_conventional,<p>Paris is the capital of France.</p>,1,20,Paris,proposition,literal,0
282,349,1809,19,4bupbgp7pb,non_conventional,<p>My soup is cold.</p>,1,9,soup,nonconventional,literal,0
283,350,2070,20,4bupbgp7pb,non_conventional,<p>Can you open that window?</p>,0,11,window,conventional,request,1
284,351,2743,21,4bupbgp7pb,non_conventional,<p>Cats are a kind of mammal.</p>,1,24,cats,proposition,literal,0
285,352,1958,22,4bupbgp7pb,non_conventional,<p>Please turn off the television.</p>,0,14,television,direct,request,1
286,353,1880,23,4bupbgp7pb,non_conventional,<p>Can you close that door?</p>,0,4,door,conventional,request,1
287,354,2590,24,4bupbgp7pb,non_conventional,<p>Please dice this onion.</p>,0,15,tomatoes,direct,request,1
288,355,1510,25,4bupbgp7pb,non_conventional,<p>Please refill my cup.</p>,0,13,salt,direct,request,1
289,362,3070,2,4wz2nb55n5,conventional,<p>Can you play the piano?</p>,0,8,piano,conventional,request,1
290,363,1822,3,4wz2nb55n5,conventional,<p>Please wash your clothes.</p>,0,16,laundry,direct,request,1
291,364,1552,4,4wz2nb55n5,conventional,<p>My back is really sore.</p>,1,2,back,nonconventional,literal,0
292,365,2079,5,4wz2nb55n5,conventional,<p>Can you say that in Spanish?</p>,0,10,spanish,conventional,request,1
293,366,1672,6,4wz2nb55n5,conventional,<p>Paris is the capital of France.</p>,1,20,Paris,proposition,literal,0
294,367,1760,7,4wz2nb55n5,conventional,<p>My laptop is broken.</p>,1,5,laptop,nonconventional,literal,0
295,368,2310,8,4wz2nb55n5,conventional,<p>Cats are a kind of mammal.</p>,1,24,cats,proposition,literal,0
296,369,2079,9,4wz2nb55n5,conventional,<p>Please dice this onion.</p>,0,15,tomatoes,direct,request,1
297,370,1192,10,4wz2nb55n5,conventional,<p>Please turn off the television.</p>,0,14,television,direct,request,1
298,371,1910,11,4wz2nb55n5,conventional,<p>Can you open that window?</p>,0,11,window,conventional,request,1
299,372,2096,12,4wz2nb55n5,conventional,<p>Can you change the temperature?</p>,0,12,temperature,conventional,request,1
300,373,1494,13,4wz2nb55n5,conventional,<p>Please clean up your room.</p>,0,17,clean,direct,request,1
301,374,1199,14,4wz2nb55n5,conventional,<p>Can you lift that box?</p>,0,3,box,conventional,request,1
302,375,1783,15,4wz2nb55n5,conventional,<p>My car isn't starting.</p>,1,1,car,nonconventional,literal,0
303,376,1359,16,4wz2nb55n5,conventional,<p>I am six feet tall.</p>,1,22,tall,proposition,literal,0
304,377,1159,17,4wz2nb55n5,conventional,<p>I am wearing a green hat.</p>,1,19,hat,proposition,literal,0
305,378,1255,18,4wz2nb55n5,conventional,<p>Please refill my cup.</p>,0,13,salt,direct,request,1
306,379,1935,19,4wz2nb55n5,conventional,<p>My office is really hot.</p>,1,6,office,nonconventional,literal,0
307,380,1567,20,4wz2nb55n5,conventional,<p>Please fix my faucet.</p>,0,18,faucet,direct,request,1
308,381,3679,21,4wz2nb55n5,conventional,<p>My phone is dying.</p>,1,7,phone,nonconventional,literal,0
309,382,1607,22,4wz2nb55n5,conventional,<p>The United States is south of Canada.</p>,1,23,usa,proposition,literal,0
310,383,1703,23,4wz2nb55n5,conventional,<p>The dog is named Skip.</p>,1,21,dog,proposition,literal,0
311,384,1209,24,4wz2nb55n5,conventional,<p>Can you close that door?</p>,0,4,door,conventional,request,1
312,385,1679,25,4wz2nb55n5,conventional,<p>My soup is cold.</p>,1,9,soup,nonconventional,literal,0
313,422,10167,2,61kqvfsbd8,conventional,<p>Can you play the piano?</p>,1,8,piano,conventional,literal,0
314,423,2400,3,61kqvfsbd8,conventional,<p>Can you close that door?</p>,0,4,door,conventional,request,1
315,424,2363,4,61kqvfsbd8,conventional,<p>Please dice this onion.</p>,0,15,tomatoes,direct,request,1
316,425,3996,5,61kqvfsbd8,conventional,<p>My soup is cold.</p>,0,9,soup,nonconventional,request,1
317,426,3073,6,61kqvfsbd8,conventional,<p>The dog is named Skip.</p>,1,21,dog,proposition,literal,0
318,427,1621,7,61kqvfsbd8,conventional,<p>I am six feet tall.</p>,1,22,tall,proposition,literal,0
319,428,1501,8,61kqvfsbd8,conventional,<p>Paris is the capital of France.</p>,1,20,Paris,proposition,literal,0
320,429,3872,9,61kqvfsbd8,conventional,<p>My phone is dying.</p>,1,7,phone,nonconventional,literal,0
321,430,1768,10,61kqvfsbd8,conventional,<p>Can you open that window?</p>,0,11,window,conventional,request,1
322,431,2410,11,61kqvfsbd8,conventional,<p>My back is really sore.</p>,0,2,back,nonconventional,request,1
323,432,3046,12,61kqvfsbd8,conventional,<p>Cats are a kind of mammal.</p>,1,24,cats,proposition,literal,0
324,433,3518,13,61kqvfsbd8,conventional,<p>I am wearing a green hat.</p>,1,19,hat,proposition,literal,0
325,434,3444,14,61kqvfsbd8,conventional,<p>Can you say that in Spanish?</p>,0,10,spanish,conventional,request,1
326,435,1389,15,61kqvfsbd8,conventional,<p>My laptop is broken.</p>,1,5,laptop,nonconventional,literal,0
327,436,8923,16,61kqvfsbd8,conventional,<p>My office is really hot.</p>,0,6,office,nonconventional,request,1
328,437,1218,17,61kqvfsbd8,conventional,<p>Please fix my faucet.</p>,0,18,faucet,direct,request,1
329,438,1587,18,61kqvfsbd8,conventional,<p>Please wash your clothes.</p>,0,16,laundry,direct,request,1
330,439,1050,19,61kqvfsbd8,conventional,<p>Please refill my cup.</p>,0,13,salt,direct,request,1
331,440,1271,20,61kqvfsbd8,conventional,<p>Can you lift that box?</p>,0,3,box,conventional,request,1
332,441,1705,21,61kqvfsbd8,conventional,<p>The United States is south of Canada.</p>,1,23,usa,proposition,literal,0
333,442,1556,22,61kqvfsbd8,conventional,<p>Please turn off the television.</p>,0,14,television,direct,request,1
334,443,4862,23,61kqvfsbd8,conventional,<p>My car isn't starting.</p>,1,1,car,nonconventional,literal,0
335,444,1458,24,61kqvfsbd8,conventional,<p>Please clean up your room.</p>,0,17,clean,direct,request,1
336,445,1555,25,61kqvfsbd8,conventional,<p>Can you change the temperature?</p>,0,12,temperature,conventional,request,1
337,452,4252,2,6e2b6awezx,non_conventional,<p>Cats are a kind of mammal.</p>,1,24,cats,proposition,literal,0
338,453,6041,3,6e2b6awezx,non_conventional,<p>My back is really sore.</p>,1,2,back,nonconventional,literal,0
339,454,1608,4,6e2b6awezx,non_conventional,<p>Can you open that window?</p>,0,11,window,conventional,request,1
340,455,1979,5,6e2b6awezx,non_conventional,<p>Can you say that in Spanish?</p>,0,10,spanish,conventional,request,1
341,456,1845,6,6e2b6awezx,non_conventional,<p>The United States is south of Canada.</p>,1,23,usa,proposition,literal,0
342,457,2441,7,6e2b6awezx,non_conventional,<p>I am wearing a green hat.</p>,1,19,hat,proposition,literal,0
343,458,1608,8,6e2b6awezx,non_conventional,<p>Can you play the piano?</p>,0,8,piano,conventional,request,1
344,459,1585,9,6e2b6awezx,non_conventional,<p>Please dice this onion.</p>,0,15,tomatoes,direct,request,1
345,460,3218,10,6e2b6awezx,non_conventional,<p>My soup is cold.</p>,0,9,soup,nonconventional,request,1
346,461,2452,11,6e2b6awezx,non_conventional,<p>My office is really hot.</p>,0,6,office,nonconventional,request,1
347,462,1192,12,6e2b6awezx,non_conventional,<p>Please clean up your room.</p>,0,17,clean,direct,request,1
348,463,2914,13,6e2b6awezx,non_conventional,<p>My car isn't starting.</p>,1,1,car,nonconventional,literal,0
349,464,1001,14,6e2b6awezx,non_conventional,<p>Can you close that door?</p>,0,4,door,conventional,request,1
350,465,1518,15,6e2b6awezx,non_conventional,<p>I am six feet tall.</p>,1,22,tall,proposition,literal,0
351,466,1339,16,6e2b6awezx,non_conventional,<p>Please turn off the television.</p>,0,14,television,direct,request,1
352,467,1327,17,6e2b6awezx,non_conventional,<p>Can you lift that box?</p>,0,3,box,conventional,request,1
353,468,2396,18,6e2b6awezx,non_conventional,<p>Paris is the capital of France.</p>,1,20,Paris,proposition,literal,0
354,469,1293,19,6e2b6awezx,non_conventional,<p>Please wash your clothes.</p>,0,16,laundry,direct,request,1
355,470,1327,20,6e2b6awezx,non_conventional,<p>Please fix my faucet.</p>,0,18,faucet,direct,request,1
356,471,1249,21,6e2b6awezx,non_conventional,<p>Can you change the temperature?</p>,0,12,temperature,conventional,request,1
357,472,2925,22,6e2b6awezx,non_conventional,<p>My phone is dying.</p>,1,7,phone,nonconventional,literal,0
358,473,1564,23,6e2b6awezx,non_conventional,<p>The dog is named Skip.</p>,1,21,dog,proposition,literal,0
359,474,2171,24,6e2b6awezx,non_conventional,<p>Please refill my cup.</p>,0,13,salt,direct,request,1
360,475,2103,25,6e2b6awezx,non_conventional,<p>My laptop is broken.</p>,1,5,laptop,nonconventional,literal,0
361,482,6462,2,6k9elspt2j,non_conventional,<p>Can you open that window?</p>,0,11,window,conventional,request,1
362,483,2477,3,6k9elspt2j,non_conventional,<p>My office is really hot.</p>,1,6,office,nonconventional,literal,0
363,484,934,4,6k9elspt2j,non_conventional,<p>Can you change the temperature?</p>,0,12,temperature,conventional,request,1
364,485,1063,5,6k9elspt2j,non_conventional,<p>My laptop is broken.</p>,1,5,laptop,nonconventional,literal,0
365,486,1407,6,6k9elspt2j,non_conventional,<p>Can you say that in Spanish?</p>,0,10,spanish,conventional,request,1
366,487,1141,7,6k9elspt2j,non_conventional,<p>Please turn off the television.</p>,0,14,television,direct,request,1
367,488,1003,8,6k9elspt2j,non_conventional,<p>My soup is cold.</p>,1,9,soup,nonconventional,literal,0
368,489,2188,9,6k9elspt2j,non_conventional,<p>Cats are a kind of mammal.</p>,1,24,cats,proposition,literal,0
369,490,993,10,6k9elspt2j,non_conventional,<p>Please clean up your room.</p>,0,17,clean,direct,request,1
370,491,3108,11,6k9elspt2j,non_conventional,<p>Please dice this onion.</p>,0,15,tomatoes,direct,request,1
371,492,1148,12,6k9elspt2j,non_conventional,<p>Please fix my faucet.</p>,0,18,faucet,direct,request,1
372,493,715,13,6k9elspt2j,non_conventional,<p>Please wash your clothes.</p>,0,16,laundry,direct,request,1
373,494,857,14,6k9elspt2j,non_conventional,<p>Please refill my cup.</p>,0,13,salt,direct,request,1
374,495,1353,15,6k9elspt2j,non_conventional,<p>The dog is named Skip.</p>,1,21,dog,proposition,literal,0
375,496,1228,16,6k9elspt2j,non_conventional,<p>The United States is south of Canada.</p>,1,23,usa,proposition,literal,0
376,497,1509,17,6k9elspt2j,non_conventional,<p>My back is really sore.</p>,1,2,back,nonconventional,literal,0
377,498,1105,18,6k9elspt2j,non_conventional,<p>My car isn't starting.</p>,1,1,car,nonconventional,literal,0
378,499,1037,19,6k9elspt2j,non_conventional,<p>Can you close that door?</p>,0,4,door,conventional,request,1
379,500,900,20,6k9elspt2j,non_conventional,<p>My phone is dying.</p>,1,7,phone,nonconventional,literal,0
380,501,1301,21,6k9elspt2j,non_conventional,<p>Paris is the capital of France.</p>,1,20,Paris,proposition,literal,0
381,502,1046,22,6k9elspt2j,non_conventional,<p>Can you lift that box?</p>,0,3,box,conventional,request,1
382,503,4157,23,6k9elspt2j,non_conventional,<p>Can you play the piano?</p>,0,8,piano,conventional,request,1
383,504,1428,24,6k9elspt2j,non_conventional,<p>I am wearing a green hat.</p>,1,19,hat,proposition,literal,0
384,505,1215,25,6k9elspt2j,non_conventional,<p>I am six feet tall.</p>,1,22,tall,proposition,literal,0
385,512,4399,2,6ppdv762zn,non_conventional,<p>My laptop is broken.</p>,1,5,laptop,nonconventional,literal,0
386,513,11804,3,6ppdv762zn,non_conventional,<p>Can you change the temperature?</p>,0,12,temperature,conventional,request,1
387,514,5685,4,6ppdv762zn,non_conventional,<p>Please turn off the television.</p>,0,14,television,direct,request,1
388,515,2487,5,6ppdv762zn,non_conventional,<p>My soup is cold.</p>,1,9,soup,nonconventional,literal,0
389,516,4454,6,6ppdv762zn,non_conventional,<p>Cats are a kind of mammal.</p>,1,24,cats,proposition,literal,0
390,517,2148,7,6ppdv762zn,non_conventional,<p>Can you close that door?</p>,0,4,door,conventional,request,1
391,518,2448,8,6ppdv762zn,non_conventional,<p>The United States is south of Canada.</p>,1,23,usa,proposition,literal,0
392,519,1916,9,6ppdv762zn,non_conventional,<p>Can you say that in Spanish?</p>,0,10,spanish,conventional,request,1
393,520,2072,10,6ppdv762zn,non_conventional,<p>My car isn't starting.</p>,1,1,car,nonconventional,literal,0
394,521,2279,11,6ppdv762zn,non_conventional,<p>Paris is the capital of France.</p>,1,20,Paris,proposition,literal,0
395,522,1664,12,6ppdv762zn,non_conventional,<p>Can you play the piano?</p>,0,8,piano,conventional,request,1
396,523,5647,13,6ppdv762zn,non_conventional,<p>The dog is named Skip.</p>,1,21,dog,proposition,literal,0
397,524,1857,14,6ppdv762zn,non_conventional,<p>Please fix my faucet.</p>,0,18,faucet,direct,request,1
398,525,1646,15,6ppdv762zn,non_conventional,<p>I am six feet tall.</p>,1,22,tall,proposition,literal,0
399,526,1578,16,6ppdv762zn,non_conventional,<p>Please refill my cup.</p>,0,13,salt,direct,request,1
400,527,1803,17,6ppdv762zn,non_conventional,<p>My office is really hot.</p>,1,6,office,nonconventional,literal,0
401,528,2458,18,6ppdv762zn,non_conventional,<p>Please dice this onion.</p>,0,15,tomatoes,direct,request,1
402,529,2325,19,6ppdv762zn,non_conventional,<p>Can you lift that box?</p>,0,3,box,conventional,request,1
403,530,3086,20,6ppdv762zn,non_conventional,<p>Please clean up your room.</p>,0,17,clean,direct,request,1
404,531,1671,21,6ppdv762zn,non_conventional,<p>My back is really sore.</p>,1,2,back,nonconventional,literal,0
405,532,1570,22,6ppdv762zn,non_conventional,<p>Can you open that window?</p>,0,11,window,conventional,request,1
406,533,1716,23,6ppdv762zn,non_conventional,<p>My phone is dying.</p>,1,7,phone,nonconventional,literal,0
407,534,1556,24,6ppdv762zn,non_conventional,<p>Please wash your clothes.</p>,0,16,laundry,direct,request,1
408,535,1518,25,6ppdv762zn,non_conventional,<p>I am wearing a green hat.</p>,1,19,hat,proposition,literal,0
409,542,1383,2,7j9ky7hkzj,conventional,<p>Please fix my faucet.</p>,0,18,faucet,direct,request,1
410,543,1285,3,7j9ky7hkzj,conventional,<p>My car isn't starting.</p>,1,1,car,nonconventional,literal,0
411,544,1074,4,7j9ky7hkzj,conventional,<p>Please turn off the television.</p>,0,14,television,direct,request,1
412,545,822,5,7j9ky7hkzj,conventional,<p>Please refill my cup.</p>,0,13,salt,direct,request,1
413,546,1951,6,7j9ky7hkzj,conventional,<p>Please dice this onion.</p>,0,15,tomatoes,direct,request,1
414,547,1156,7,7j9ky7hkzj,conventional,<p>Can you close that door?</p>,0,4,door,conventional,request,1
415,548,1009,8,7j9ky7hkzj,conventional,<p>Please clean up your room.</p>,0,17,clean,direct,request,1
416,549,881,9,7j9ky7hkzj,conventional,<p>Can you lift that box?</p>,0,3,box,conventional,request,1
417,550,1029,10,7j9ky7hkzj,conventional,<p>Can you change the temperature?</p>,0,12,temperature,conventional,request,1
418,551,1651,11,7j9ky7hkzj,conventional,<p>Can you open that window?</p>,0,11,window,conventional,request,1
419,552,1110,12,7j9ky7hkzj,conventional,<p>The dog is named Skip.</p>,1,21,dog,proposition,literal,0
420,553,1499,13,7j9ky7hkzj,conventional,<p>My laptop is broken.</p>,1,5,laptop,nonconventional,literal,0
421,554,9110,14,7j9ky7hkzj,conventional,<p>The United States is south of Canada.</p>,1,23,usa,proposition,literal,0
422,555,1045,15,7j9ky7hkzj,conventional,<p>Cats are a kind of mammal.</p>,1,24,cats,proposition,literal,0
423,556,4211,16,7j9ky7hkzj,conventional,<p>My office is really hot.</p>,1,6,office,nonconventional,literal,0
424,557,936,17,7j9ky7hkzj,conventional,<p>Please wash your clothes.</p>,0,16,laundry,direct,request,1
425,558,1199,18,7j9ky7hkzj,conventional,<p>My soup is cold.</p>,1,9,soup,nonconventional,literal,0
426,559,902,19,7j9ky7hkzj,conventional,<p>My phone is dying.</p>,1,7,phone,nonconventional,literal,0
427,560,1405,20,7j9ky7hkzj,conventional,<p>Can you say that in Spanish?</p>,0,10,spanish,conventional,request,1
428,561,1348,21,7j9ky7hkzj,conventional,<p>I am wearing a green hat.</p>,1,19,hat,proposition,literal,0
429,562,2014,22,7j9ky7hkzj,conventional,<p>Paris is the capital of France.</p>,1,20,Paris,proposition,literal,0
430,563,1359,23,7j9ky7hkzj,conventional,<p>Can you play the piano?</p>,0,8,piano,conventional,request,1
431,564,1081,24,7j9ky7hkzj,conventional,<p>My back is really sore.</p>,1,2,back,nonconventional,literal,0
432,565,927,25,7j9ky7hkzj,conventional,<p>I am six feet tall.</p>,1,22,tall,proposition,literal,0
433,572,4611,2,7pek6jwqb2,conventional,<p>Can you play the piano?</p>,0,8,piano,conventional,request,1
434,573,2236,3,7pek6jwqb2,conventional,<p>My phone is dying.</p>,1,7,phone,nonconventional,literal,0
435,574,2044,4,7pek6jwqb2,conventional,<p>My back is really sore.</p>,1,2,back,nonconventional,literal,0
436,575,1446,5,7pek6jwqb2,conventional,<p>Can you change the temperature?</p>,0,12,temperature,conventional,request,1
437,576,2255,6,7pek6jwqb2,conventional,<p>Cats are a kind of mammal.</p>,1,24,cats,proposition,literal,0
438,577,2590,7,7pek6jwqb2,conventional,<p>Can you say that in Spanish?</p>,0,10,spanish,conventional,request,1
439,578,2559,8,7pek6jwqb2,conventional,<p>Please turn off the television.</p>,0,14,television,direct,request,1
440,579,2054,9,7pek6jwqb2,conventional,<p>Please dice this onion.</p>,0,15,tomatoes,direct,request,1
441,580,1399,10,7pek6jwqb2,conventional,<p>Please clean up your room.</p>,0,17,clean,direct,request,1
442,581,3165,11,7pek6jwqb2,conventional,<p>Can you close that door?</p>,0,4,door,conventional,request,1
443,582,1414,12,7pek6jwqb2,conventional,<p>Please refill my cup.</p>,0,13,salt,direct,request,1
444,583,2183,13,7pek6jwqb2,conventional,<p>My car isn't starting.</p>,1,1,car,nonconventional,literal,0
445,584,1301,14,7pek6jwqb2,conventional,<p>The dog is named Skip.</p>,1,21,dog,proposition,literal,0
446,585,1782,15,7pek6jwqb2,conventional,<p>Can you lift that box?</p>,0,3,box,conventional,request,1
447,586,1407,16,7pek6jwqb2,conventional,<p>Please wash your clothes.</p>,0,16,laundry,direct,request,1
448,587,2358,17,7pek6jwqb2,conventional,<p>My soup is cold.</p>,1,9,soup,nonconventional,literal,0
449,588,1399,18,7pek6jwqb2,conventional,<p>Please fix my faucet.</p>,0,18,faucet,direct,request,1
450,589,1270,19,7pek6jwqb2,conventional,<p>The United States is south of Canada.</p>,1,23,usa,proposition,literal,0
451,590,1787,20,7pek6jwqb2,conventional,<p>I am six feet tall.</p>,1,22,tall,proposition,literal,0
452,591,1318,21,7pek6jwqb2,conventional,<p>My office is really hot.</p>,1,6,office,nonconventional,literal,0
453,592,1742,22,7pek6jwqb2,conventional,<p>My laptop is broken.</p>,1,5,laptop,nonconventional,literal,0
454,593,1142,23,7pek6jwqb2,conventional,<p>Can you open that window?</p>,0,11,window,conventional,request,1
455,594,1750,24,7pek6jwqb2,conventional,<p>I am wearing a green hat.</p>,1,19,hat,proposition,literal,0
456,595,2503,25,7pek6jwqb2,conventional,<p>Paris is the capital of France.</p>,1,20,Paris,proposition,literal,0
457,602,1891,2,7xkrr5eb0j,non_conventional,<p>My laptop is broken.</p>,1,5,laptop,nonconventional,literal,0
458,603,2037,3,7xkrr5eb0j,non_conventional,<p>I am wearing a green hat.</p>,1,19,hat,proposition,literal,0
459,604,1476,4,7xkrr5eb0j,non_conventional,<p>Can you close that door?</p>,0,4,door,conventional,request,1
460,605,983,5,7xkrr5eb0j,non_conventional,<p>Can you change the temperature?</p>,0,12,temperature,conventional,request,1
461,606,1415,6,7xkrr5eb0j,non_conventional,<p>I am six feet tall.</p>,1,22,tall,proposition,literal,0
462,607,1606,7,7xkrr5eb0j,non_conventional,<p>Please clean up your room.</p>,0,17,clean,direct,request,1
463,608,1565,8,7xkrr5eb0j,non_conventional,<p>My phone is dying.</p>,1,7,phone,nonconventional,literal,0
464,609,1375,9,7xkrr5eb0j,non_conventional,<p>Can you lift that box?</p>,0,3,box,conventional,request,1
465,610,1033,10,7xkrr5eb0j,non_conventional,<p>Please wash your clothes.</p>,0,16,laundry,direct,request,1
466,611,884,11,7xkrr5eb0j,non_conventional,<p>Please turn off the television.</p>,0,14,television,direct,request,1
467,612,2045,12,7xkrr5eb0j,non_conventional,<p>My soup is cold.</p>,1,9,soup,nonconventional,literal,0
468,613,1237,13,7xkrr5eb0j,non_conventional,<p>Cats are a kind of mammal.</p>,1,24,cats,proposition,literal,0
469,614,1345,14,7xkrr5eb0j,non_conventional,<p>Can you play the piano?</p>,0,8,piano,conventional,request,1
470,615,1094,15,7xkrr5eb0j,non_conventional,<p>Please refill my cup.</p>,0,13,salt,direct,request,1
471,616,1195,16,7xkrr5eb0j,non_conventional,<p>Can you say that in Spanish?</p>,0,10,spanish,conventional,request,1
472,617,1434,17,7xkrr5eb0j,non_conventional,<p>My office is really hot.</p>,1,6,office,nonconventional,literal,0
473,618,1509,18,7xkrr5eb0j,non_conventional,<p>The United States is south of Canada.</p>,1,23,usa,proposition,literal,0
474,619,1958,19,7xkrr5eb0j,non_conventional,<p>My back is really sore.</p>,1,2,back,nonconventional,literal,0
475,620,1575,20,7xkrr5eb0j,non_conventional,<p>Please fix my faucet.</p>,0,18,faucet,direct,request,1
476,621,2419,21,7xkrr5eb0j,non_conventional,<p>My car isn't starting.</p>,1,1,car,nonconventional,literal,0
477,622,1329,22,7xkrr5eb0j,non_conventional,<p>Can you open that window?</p>,0,11,window,conventional,request,1
478,623,1215,23,7xkrr5eb0j,non_conventional,<p>The dog is named Skip.</p>,1,21,dog,proposition,literal,0
479,624,1416,24,7xkrr5eb0j,non_conventional,<p>Please dice this onion.</p>,0,15,tomatoes,direct,request,1
480,625,1294,25,7xkrr5eb0j,non_conventional,<p>Paris is the capital of France.</p>,1,20,Paris,proposition,literal,0
481,632,2030,2,8emprek6ge,non_conventional,<p>Can you lift that box?</p>,0,3,box,conventional,request,1
482,633,1419,3,8emprek6ge,non_conventional,<p>Cats are a kind of mammal.</p>,1,24,cats,proposition,literal,0
483,634,836,4,8emprek6ge,non_conventional,<p>Can you play the piano?</p>,0,8,piano,conventional,request,1
484,635,3713,5,8emprek6ge,non_conventional,<p>Can you change the temperature?</p>,0,12,temperature,conventional,request,1
485,636,2499,6,8emprek6ge,non_conventional,<p>My phone is dying.</p>,1,7,phone,nonconventional,literal,0
486,637,1110,7,8emprek6ge,non_conventional,<p>Paris is the capital of France.</p>,1,20,Paris,proposition,literal,0
487,638,1082,8,8emprek6ge,non_conventional,<p>I am wearing a green hat.</p>,1,19,hat,proposition,literal,0
488,639,879,9,8emprek6ge,non_conventional,<p>The dog is named Skip.</p>,1,21,dog,proposition,literal,0
489,640,1290,10,8emprek6ge,non_conventional,<p>Please fix my faucet.</p>,0,18,faucet,direct,request,1
490,641,989,11,8emprek6ge,non_conventional,<p>Can you open that window?</p>,0,11,window,conventional,request,1
491,642,1552,12,8emprek6ge,non_conventional,<p>Please clean up your room.</p>,0,17,clean,direct,request,1
492,643,1414,13,8emprek6ge,non_conventional,<p>My car isn't starting.</p>,1,1,car,nonconventional,literal,0
493,644,1319,14,8emprek6ge,non_conventional,<p>My soup is cold.</p>,1,9,soup,nonconventional,literal,0
494,645,1711,15,8emprek6ge,non_conventional,<p>Please turn off the television.</p>,0,14,television,direct,request,1
495,646,2437,16,8emprek6ge,non_conventional,<p>My office is really hot.</p>,1,6,office,nonconventional,literal,0
496,647,1367,17,8emprek6ge,non_conventional,<p>My laptop is broken.</p>,1,5,laptop,nonconventional,literal,0
497,648,1086,18,8emprek6ge,non_conventional,<p>Please refill my cup.</p>,0,13,salt,direct,request,1
498,649,1109,19,8emprek6ge,non_conventional,<p>Can you say that in Spanish?</p>,0,10,spanish,conventional,request,1
499,650,1628,20,8emprek6ge,non_conventional,<p>Please dice this onion.</p>,0,15,tomatoes,direct,request,1
500,651,1357,21,8emprek6ge,non_conventional,<p>My back is really sore.</p>,1,2,back,nonconventional,literal,0
501,652,1143,22,8emprek6ge,non_conventional,<p>I am six feet tall.</p>,1,22,tall,proposition,literal,0
502,653,2469,23,8emprek6ge,non_conventional,<p>The United States is south of Canada.</p>,1,23,usa,proposition,literal,0
503,654,1375,24,8emprek6ge,non_conventional,<p>Can you close that door?</p>,0,4,door,conventional,request,1
504,655,983,25,8emprek6ge,non_conventional,<p>Please wash your clothes.</p>,0,16,laundry,direct,request,1
505,662,2626,2,8gk17fagbk,conventional,<p>I am six feet tall.</p>,1,22,tall,proposition,literal,0
506,663,1594,3,8gk17fagbk,conventional,<p>Can you lift that box?</p>,0,3,box,conventional,request,1
507,664,8753,4,8gk17fagbk,conventional,<p>My office is really hot.</p>,1,6,office,nonconventional,literal,0
508,665,2884,5,8gk17fagbk,conventional,<p>My back is really sore.</p>,1,2,back,nonconventional,literal,0
509,666,959,6,8gk17fagbk,conventional,<p>Can you say that in Spanish?</p>,0,10,spanish,conventional,request,1
510,667,2743,7,8gk17fagbk,conventional,<p>My soup is cold.</p>,1,9,soup,nonconventional,literal,0
511,668,11926,8,8gk17fagbk,conventional,<p>The United States is south of Canada.</p>,0,23,usa,proposition,request,1
512,669,1282,9,8gk17fagbk,conventional,<p>Please refill my cup.</p>,0,13,salt,direct,request,1
513,670,1578,10,8gk17fagbk,conventional,<p>Can you close that door?</p>,0,4,door,conventional,request,1
514,671,5001,11,8gk17fagbk,conventional,<p>My car isn't starting.</p>,1,1,car,nonconventional,literal,0
515,672,2461,12,8gk17fagbk,conventional,<p>My laptop is broken.</p>,1,5,laptop,nonconventional,literal,0
516,673,2748,13,8gk17fagbk,conventional,<p>Paris is the capital of France.</p>,1,20,Paris,proposition,literal,0
517,674,3099,14,8gk17fagbk,conventional,<p>Please dice this onion.</p>,0,15,tomatoes,direct,request,1
518,675,1312,15,8gk17fagbk,conventional,<p>Please turn off the television.</p>,0,14,television,direct,request,1
519,676,1741,16,8gk17fagbk,conventional,<p>The dog is named Skip.</p>,1,21,dog,proposition,literal,0
520,677,1297,17,8gk17fagbk,conventional,<p>Can you play the piano?</p>,0,8,piano,conventional,request,1
521,678,3973,18,8gk17fagbk,conventional,<p>Can you change the temperature?</p>,0,12,temperature,conventional,request,1
522,679,1291,19,8gk17fagbk,conventional,<p>Please clean up your room.</p>,0,17,clean,direct,request,1
523,680,2171,20,8gk17fagbk,conventional,<p>Can you open that window?</p>,0,11,window,conventional,request,1
524,681,936,21,8gk17fagbk,conventional,<p>Please wash your clothes.</p>,0,16,laundry,direct,request,1
525,682,1370,22,8gk17fagbk,conventional,<p>Cats are a kind of mammal.</p>,1,24,cats,proposition,literal,0
526,683,1142,23,8gk17fagbk,conventional,<p>Please fix my faucet.</p>,0,18,faucet,direct,request,1
527,684,1760,24,8gk17fagbk,conventional,<p>My phone is dying.</p>,1,7,phone,nonconventional,literal,0
528,685,3419,25,8gk17fagbk,conventional,<p>I am wearing a green hat.</p>,1,19,hat,proposition,literal,0
529,692,5447,2,8m74x3ylzw,conventional,<p>My phone is dying.</p>,1,7,phone,nonconventional,literal,0
530,693,3336,3,8m74x3ylzw,conventional,<p>I am six feet tall.</p>,1,22,tall,proposition,literal,0
531,694,3271,4,8m74x3ylzw,conventional,<p>Can you close that door?</p>,0,4,door,conventional,request,1
532,695,2407,5,8m74x3ylzw,conventional,<p>Please fix my faucet.</p>,0,18,faucet,direct,request,1
533,696,8959,6,8m74x3ylzw,conventional,<p>Can you play the piano?</p>,1,8,piano,conventional,literal,0
534,697,2743,7,8m74x3ylzw,conventional,<p>Can you lift that box?</p>,0,3,box,conventional,request,1
535,698,4807,8,8m74x3ylzw,conventional,<p>Can you say that in Spanish?</p>,0,10,spanish,conventional,request,1
536,699,1591,9,8m74x3ylzw,conventional,<p>The dog is named Skip.</p>,1,21,dog,proposition,literal,0
537,700,1703,10,8m74x3ylzw,conventional,<p>My back is really sore.</p>,1,2,back,nonconventional,literal,0
538,701,1887,11,8m74x3ylzw,conventional,<p>My laptop is broken.</p>,1,5,laptop,nonconventional,literal,0
539,702,1647,12,8m74x3ylzw,conventional,<p>Please turn off the television.</p>,0,14,television,direct,request,1
540,703,1831,13,8m74x3ylzw,conventional,<p>Can you open that window?</p>,0,11,window,conventional,request,1
541,704,2168,14,8m74x3ylzw,conventional,<p>Please dice this onion.</p>,0,15,tomatoes,direct,request,1
542,705,2216,15,8m74x3ylzw,conventional,<p>Please wash your clothes.</p>,0,16,laundry,direct,request,1
543,706,1640,16,8m74x3ylzw,conventional,<p>Paris is the capital of France.</p>,1,20,Paris,proposition,literal,0
544,707,1672,17,8m74x3ylzw,conventional,<p>I am wearing a green hat.</p>,1,19,hat,proposition,literal,0
545,708,1552,18,8m74x3ylzw,conventional,<p>Please refill my cup.</p>,0,13,salt,direct,request,1
546,709,1928,19,8m74x3ylzw,conventional,<p>Cats are a kind of mammal.</p>,1,24,cats,proposition,literal,0
547,710,1616,20,8m74x3ylzw,conventional,<p>My car isn't starting.</p>,1,1,car,nonconventional,literal,0
548,711,1608,21,8m74x3ylzw,conventional,<p>Please clean up your room.</p>,0,17,clean,direct,request,1
549,712,1736,22,8m74x3ylzw,conventional,<p>Can you change the temperature?</p>,0,12,temperature,conventional,request,1
550,713,2128,23,8m74x3ylzw,conventional,<p>My soup is cold.</p>,1,9,soup,nonconventional,literal,0
551,714,3368,24,8m74x3ylzw,conventional,<p>The United States is south of Canada.</p>,1,23,usa,proposition,literal,0
552,715,1960,25,8m74x3ylzw,conventional,<p>My office is really hot.</p>,1,6,office,nonconventional,literal,0
553,722,4463,2,8u59621bmp,non_conventional,<p>Can you open that window?</p>,0,11,window,conventional,request,1
554,723,5103,3,8u59621bmp,non_conventional,<p>Can you close that door?</p>,0,4,door,conventional,request,1
555,724,3591,4,8u59621bmp,non_conventional,<p>The United States is south of Canada.</p>,1,23,usa,proposition,literal,0
556,725,2775,5,8u59621bmp,non_conventional,<p>I am wearing a green hat.</p>,1,19,hat,proposition,literal,0
557,726,3456,6,8u59621bmp,non_conventional,<p>Please refill my cup.</p>,0,13,salt,direct,request,1
558,727,1528,7,8u59621bmp,non_conventional,<p>My car isn't starting.</p>,1,1,car,nonconventional,literal,0
559,728,3176,8,8u59621bmp,non_conventional,<p>Please wash your clothes.</p>,0,16,laundry,direct,request,1
560,729,2567,9,8u59621bmp,non_conventional,<p>Can you say that in Spanish?</p>,0,10,spanish,conventional,request,1
561,730,2888,10,8u59621bmp,non_conventional,<p>Can you lift that box?</p>,1,3,box,conventional,literal,0
562,731,5823,11,8u59621bmp,non_conventional,<p>Please clean up your room.</p>,0,17,clean,direct,request,1
563,732,3784,12,8u59621bmp,non_conventional,<p>My soup is cold.</p>,1,9,soup,nonconventional,literal,0
564,733,1407,13,8u59621bmp,non_conventional,<p>My office is really hot.</p>,1,6,office,nonconventional,literal,0
565,734,1135,14,8u59621bmp,non_conventional,<p>Paris is the capital of France.</p>,1,20,Paris,proposition,literal,0
566,735,1752,15,8u59621bmp,non_conventional,<p>Can you play the piano?</p>,0,8,piano,conventional,request,1
567,736,1502,16,8u59621bmp,non_conventional,<p>Can you change the temperature?</p>,0,12,temperature,conventional,request,1
568,737,3447,17,8u59621bmp,non_conventional,<p>Please dice this onion.</p>,0,15,tomatoes,direct,request,1
569,738,1399,18,8u59621bmp,non_conventional,<p>Please turn off the television.</p>,0,14,television,direct,request,1
570,739,1448,19,8u59621bmp,non_conventional,<p>My phone is dying.</p>,1,7,phone,nonconventional,literal,0
571,740,1240,20,8u59621bmp,non_conventional,<p>I am six feet tall.</p>,1,22,tall,proposition,literal,0
572,741,3432,21,8u59621bmp,non_conventional,<p>My back is really sore.</p>,1,2,back,nonconventional,literal,0
573,742,1280,22,8u59621bmp,non_conventional,<p>The dog is named Skip.</p>,1,21,dog,proposition,literal,0
574,743,1080,23,8u59621bmp,non_conventional,<p>My laptop is broken.</p>,1,5,laptop,nonconventional,literal,0
575,744,1752,24,8u59621bmp,non_conventional,<p>Cats are a kind of mammal.</p>,1,24,cats,proposition,literal,0
576,745,3344,25,8u59621bmp,non_conventional,<p>Please fix my faucet.</p>,0,18,faucet,direct,request,1
577,752,7578,2,ap162uepck,non_conventional,<p>My soup is cold.</p>,1,9,soup,nonconventional,literal,0
578,753,1929,3,ap162uepck,non_conventional,<p>Please fix my faucet.</p>,0,18,faucet,direct,request,1
579,754,3698,4,ap162uepck,non_conventional,<p>I am wearing a green hat.</p>,1,19,hat,proposition,literal,0
580,755,2897,5,ap162uepck,non_conventional,<p>My back is really sore.</p>,1,2,back,nonconventional,literal,0
581,756,4018,6,ap162uepck,non_conventional,<p>I am six feet tall.</p>,1,22,tall,proposition,literal,0
582,757,10127,7,ap162uepck,non_conventional,<p>My office is really hot.</p>,0,6,office,nonconventional,request,1
583,758,1351,8,ap162uepck,non_conventional,<p>Please wash your clothes.</p>,0,16,laundry,direct,request,1
584,759,965,9,ap162uepck,non_conventional,<p>Please clean up your room.</p>,0,17,clean,direct,request,1
585,760,5256,10,ap162uepck,non_conventional,<p>Can you play the piano?</p>,1,8,piano,conventional,literal,0
586,761,3927,11,ap162uepck,non_conventional,<p>Paris is the capital of France.</p>,1,20,Paris,proposition,literal,0
587,762,2519,12,ap162uepck,non_conventional,<p>Can you say that in Spanish?</p>,0,10,spanish,conventional,request,1
588,763,4057,13,ap162uepck,non_conventional,<p>Cats are a kind of mammal.</p>,1,24,cats,proposition,literal,0
589,764,2501,14,ap162uepck,non_conventional,<p>The dog is named Skip.</p>,1,21,dog,proposition,literal,0
590,765,4153,15,ap162uepck,non_conventional,<p>My car isn't starting.</p>,1,1,car,nonconventional,literal,0
591,766,1399,16,ap162uepck,non_conventional,<p>Can you lift that box?</p>,0,3,box,conventional,request,1
592,767,845,17,ap162uepck,non_conventional,<p>Can you close that door?</p>,0,4,door,conventional,request,1
593,768,3942,18,ap162uepck,non_conventional,<p>The United States is south of Canada.</p>,1,23,usa,proposition,literal,0
594,769,1560,19,ap162uepck,non_conventional,<p>My laptop is broken.</p>,1,5,laptop,nonconventional,literal,0
595,770,1371,20,ap162uepck,non_conventional,<p>Please dice this onion.</p>,0,15,tomatoes,direct,request,1
596,771,1048,21,ap162uepck,non_conventional,<p>Please refill my cup.</p>,0,13,salt,direct,request,1
597,772,3284,22,ap162uepck,non_conventional,<p>My phone is dying.</p>,1,7,phone,nonconventional,literal,0
598,773,1229,23,ap162uepck,non_conventional,<p>Please turn off the television.</p>,0,14,television,direct,request,1
599,774,1802,24,ap162uepck,non_conventional,<p>Can you change the temperature?</p>,0,12,temperature,conventional,request,1
600,775,1097,25,ap162uepck,non_conventional,<p>Can you open that window?</p>,0,11,window,conventional,request,1
601,782,3179,2,aw4e3x20sh,non_conventional,<p>Paris is the capital of France.</p>,1,20,Paris,proposition,literal,0
602,783,2364,3,aw4e3x20sh,non_conventional,<p>Please clean up your room.</p>,0,17,clean,direct,request,1
603,784,1723,4,aw4e3x20sh,non_conventional,<p>My laptop is broken.</p>,1,5,laptop,nonconventional,literal,0
604,785,1736,5,aw4e3x20sh,non_conventional,<p>Please dice this onion.</p>,0,15,tomatoes,direct,request,1
605,786,1519,6,aw4e3x20sh,non_conventional,<p>My soup is cold.</p>,1,9,soup,nonconventional,literal,0
606,787,1601,7,aw4e3x20sh,non_conventional,<p>I am six feet tall.</p>,1,22,tall,proposition,literal,0
607,788,1551,8,aw4e3x20sh,non_conventional,<p>My back is really sore.</p>,1,2,back,nonconventional,literal,0
608,789,2197,9,aw4e3x20sh,non_conventional,<p>Cats are a kind of mammal.</p>,1,24,cats,proposition,literal,0
609,790,1663,10,aw4e3x20sh,non_conventional,<p>Can you close that door?</p>,0,4,door,conventional,request,1
610,791,1444,11,aw4e3x20sh,non_conventional,<p>I am wearing a green hat.</p>,1,19,hat,proposition,literal,0
611,792,1189,12,aw4e3x20sh,non_conventional,<p>Please fix my faucet.</p>,0,18,faucet,direct,request,1
612,793,1465,13,aw4e3x20sh,non_conventional,<p>The United States is south of Canada.</p>,1,23,usa,proposition,literal,0
613,794,1130,14,aw4e3x20sh,non_conventional,<p>Can you open that window?</p>,0,11,window,conventional,request,1
614,795,1517,15,aw4e3x20sh,non_conventional,<p>My office is really hot.</p>,1,6,office,nonconventional,literal,0
615,796,1625,16,aw4e3x20sh,non_conventional,<p>Can you change the temperature?</p>,0,12,temperature,conventional,request,1
616,797,1492,17,aw4e3x20sh,non_conventional,<p>The dog is named Skip.</p>,1,21,dog,proposition,literal,0
617,798,1262,18,aw4e3x20sh,non_conventional,<p>Please refill my cup.</p>,0,13,salt,direct,request,1
618,799,1431,19,aw4e3x20sh,non_conventional,<p>My car isn't starting.</p>,1,1,car,nonconventional,literal,0
619,800,1228,20,aw4e3x20sh,non_conventional,<p>Can you lift that box?</p>,0,3,box,conventional,request,1
620,801,1371,21,aw4e3x20sh,non_conventional,<p>My phone is dying.</p>,1,7,phone,nonconventional,literal,0
621,802,1881,22,aw4e3x20sh,non_conventional,<p>Please turn off the television.</p>,0,14,television,direct,request,1
622,803,1471,23,aw4e3x20sh,non_conventional,<p>Can you say that in Spanish?</p>,0,10,spanish,conventional,request,1
623,804,1279,24,aw4e3x20sh,non_conventional,<p>Please wash your clothes.</p>,0,16,laundry,direct,request,1
624,805,1637,25,aw4e3x20sh,non_conventional,<p>Can you play the piano?</p>,0,8,piano,conventional,request,1
625,812,2865,2,ay6yv6aqqk,conventional,<p>Please refill my cup.</p>,0,13,salt,direct,request,1
626,813,2266,3,ay6yv6aqqk,conventional,<p>Cats are a kind of mammal.</p>,1,24,cats,proposition,literal,0
627,814,1148,4,ay6yv6aqqk,conventional,<p>My phone is dying.</p>,1,7,phone,nonconventional,literal,0
628,815,967,5,ay6yv6aqqk,conventional,<p>My soup is cold.</p>,1,9,soup,nonconventional,literal,0
629,816,1216,6,ay6yv6aqqk,conventional,<p>My car isn't starting.</p>,1,1,car,nonconventional,literal,0
630,817,1188,7,ay6yv6aqqk,conventional,<p>Please dice this onion.</p>,0,15,tomatoes,direct,request,1
631,818,1022,8,ay6yv6aqqk,conventional,<p>Can you say that in Spanish?</p>,0,10,spanish,conventional,request,1
632,819,952,9,ay6yv6aqqk,conventional,<p>Can you lift that box?</p>,0,3,box,conventional,request,1
633,820,1264,10,ay6yv6aqqk,conventional,<p>The United States is south of Canada.</p>,1,23,usa,proposition,literal,0
634,821,1538,11,ay6yv6aqqk,conventional,<p>I am six feet tall.</p>,1,22,tall,proposition,literal,0
635,822,1218,12,ay6yv6aqqk,conventional,<p>Please clean up your room.</p>,0,17,clean,direct,request,1
636,823,1145,13,ay6yv6aqqk,conventional,<p>Can you change the temperature?</p>,0,12,temperature,conventional,request,1
637,824,1197,14,ay6yv6aqqk,conventional,<p>My office is really hot.</p>,1,6,office,nonconventional,literal,0
638,825,1074,15,ay6yv6aqqk,conventional,<p>The dog is named Skip.</p>,1,21,dog,proposition,literal,0
639,826,1122,16,ay6yv6aqqk,conventional,<p>Paris is the capital of France.</p>,1,20,Paris,proposition,literal,0
640,827,1645,17,ay6yv6aqqk,conventional,<p>Can you open that window?</p>,0,11,window,conventional,request,1
641,828,1900,18,ay6yv6aqqk,conventional,<p>Can you close that door?</p>,0,4,door,conventional,request,1
642,829,1025,19,ay6yv6aqqk,conventional,<p>My back is really sore.</p>,1,2,back,nonconventional,literal,0
643,830,1061,20,ay6yv6aqqk,conventional,<p>Please wash your clothes.</p>,0,16,laundry,direct,request,1
644,831,1153,21,ay6yv6aqqk,conventional,<p>Please turn off the television.</p>,0,14,television,direct,request,1
645,832,1200,22,ay6yv6aqqk,conventional,<p>Can you play the piano?</p>,0,8,piano,conventional,request,1
646,833,1208,23,ay6yv6aqqk,conventional,<p>I am wearing a green hat.</p>,1,19,hat,proposition,literal,0
647,834,1009,24,ay6yv6aqqk,conventional,<p>My laptop is broken.</p>,1,5,laptop,nonconventional,literal,0
648,835,1203,25,ay6yv6aqqk,conventional,<p>Please fix my faucet.</p>,0,18,faucet,direct,request,1
649,842,7824,2,b64zddj1o1,non_conventional,<p>Can you lift that box?</p>,1,3,box,conventional,literal,0
650,843,3519,3,b64zddj1o1,non_conventional,<p>My laptop is broken.</p>,1,5,laptop,nonconventional,literal,0
651,844,1982,4,b64zddj1o1,non_conventional,<p>Can you play the piano?</p>,1,8,piano,conventional,literal,0
652,845,1319,5,b64zddj1o1,non_conventional,<p>Paris is the capital of France.</p>,1,20,Paris,proposition,literal,0
653,846,2315,6,b64zddj1o1,non_conventional,<p>I am wearing a green hat.</p>,1,19,hat,proposition,literal,0
654,847,1615,7,b64zddj1o1,non_conventional,<p>My phone is dying.</p>,1,7,phone,nonconventional,literal,0
655,848,4829,8,b64zddj1o1,non_conventional,<p>Can you say that in Spanish?</p>,0,10,spanish,conventional,request,1
656,849,1645,9,b64zddj1o1,non_conventional,<p>My back is really sore.</p>,1,2,back,nonconventional,literal,0
657,850,1809,10,b64zddj1o1,non_conventional,<p>Please dice this onion.</p>,0,15,tomatoes,direct,request,1
658,851,2240,11,b64zddj1o1,non_conventional,<p>Cats are a kind of mammal.</p>,1,24,cats,proposition,literal,0
659,852,2035,12,b64zddj1o1,non_conventional,<p>My car isn't starting.</p>,1,1,car,nonconventional,literal,0
660,853,1468,13,b64zddj1o1,non_conventional,<p>Please wash your clothes.</p>,0,16,laundry,direct,request,1
661,854,1371,14,b64zddj1o1,non_conventional,<p>Please turn off the television.</p>,0,14,television,direct,request,1
662,855,3199,15,b64zddj1o1,non_conventional,<p>Please refill my cup.</p>,0,13,salt,direct,request,1
663,856,1497,16,b64zddj1o1,non_conventional,<p>I am six feet tall.</p>,1,22,tall,proposition,literal,0
664,857,2654,17,b64zddj1o1,non_conventional,<p>Can you change the temperature?</p>,0,12,temperature,conventional,request,1
665,858,1942,18,b64zddj1o1,non_conventional,<p>Can you open that window?</p>,0,11,window,conventional,request,1
666,859,1771,19,b64zddj1o1,non_conventional,<p>Can you close that door?</p>,0,4,door,conventional,request,1
667,860,1433,20,b64zddj1o1,non_conventional,<p>My soup is cold.</p>,1,9,soup,nonconventional,literal,0
668,861,1201,21,b64zddj1o1,non_conventional,<p>The United States is south of Canada.</p>,1,23,usa,proposition,literal,0
669,862,1882,22,b64zddj1o1,non_conventional,<p>Please fix my faucet.</p>,0,18,faucet,direct,request,1
670,863,1599,23,b64zddj1o1,non_conventional,<p>My office is really hot.</p>,1,6,office,nonconventional,literal,0
671,864,1379,24,b64zddj1o1,non_conventional,<p>Please clean up your room.</p>,0,17,clean,direct,request,1
672,865,1217,25,b64zddj1o1,non_conventional,<p>The dog is named Skip.</p>,1,21,dog,proposition,literal,0
673,872,8771,2,bc0lf0s46f,non_conventional,<p>Can you change the temperature?</p>,0,12,temperature,conventional,request,1
674,873,1823,3,bc0lf0s46f,non_conventional,<p>Can you play the piano?</p>,1,8,piano,conventional,literal,0
675,874,2388,4,bc0lf0s46f,non_conventional,<p>I am wearing a green hat.</p>,1,19,hat,proposition,literal,0
676,875,3095,5,bc0lf0s46f,non_conventional,<p>Please dice this onion.</p>,0,15,tomatoes,direct,request,1
677,876,2886,6,bc0lf0s46f,non_conventional,<p>The United States is south of Canada.</p>,1,23,usa,proposition,literal,0
678,877,1410,7,bc0lf0s46f,non_conventional,<p>Please fix my faucet.</p>,0,18,faucet,direct,request,1
679,878,2567,8,bc0lf0s46f,non_conventional,<p>Cats are a kind of mammal.</p>,1,24,cats,proposition,literal,0
680,879,1637,9,bc0lf0s46f,non_conventional,<p>Paris is the capital of France.</p>,1,20,Paris,proposition,literal,0
681,880,1834,10,bc0lf0s46f,non_conventional,<p>Please refill my cup.</p>,0,13,salt,direct,request,1
682,881,1590,11,bc0lf0s46f,non_conventional,<p>Please wash your clothes.</p>,0,16,laundry,direct,request,1
683,882,1636,12,bc0lf0s46f,non_conventional,<p>I am six feet tall.</p>,1,22,tall,proposition,literal,0
684,883,8210,13,bc0lf0s46f,non_conventional,<p>My phone is dying.</p>,1,7,phone,nonconventional,literal,0
685,884,2284,14,bc0lf0s46f,non_conventional,<p>My car isn't starting.</p>,1,1,car,nonconventional,literal,0
686,885,2474,15,bc0lf0s46f,non_conventional,<p>Please turn off the television.</p>,0,14,television,direct,request,1
687,886,19952,16,bc0lf0s46f,non_conventional,<p>Can you say that in Spanish?</p>,0,10,spanish,conventional,request,1
688,887,2808,17,bc0lf0s46f,non_conventional,<p>My office is really hot.</p>,1,6,office,nonconventional,literal,0
689,888,3114,18,bc0lf0s46f,non_conventional,<p>Please clean up your room.</p>,0,17,clean,direct,request,1
690,889,2261,19,bc0lf0s46f,non_conventional,<p>Can you close that door?</p>,0,4,door,conventional,request,1
691,890,1698,20,bc0lf0s46f,non_conventional,<p>My back is really sore.</p>,1,2,back,nonconventional,literal,0
692,891,1278,21,bc0lf0s46f,non_conventional,<p>Can you lift that box?</p>,0,3,box,conventional,request,1
693,892,1137,22,bc0lf0s46f,non_conventional,<p>Can you open that window?</p>,0,11,window,conventional,request,1
694,893,935,23,bc0lf0s46f,non_conventional,<p>The dog is named Skip.</p>,1,21,dog,proposition,literal,0
695,894,1262,24,bc0lf0s46f,non_conventional,<p>My soup is cold.</p>,1,9,soup,nonconventional,literal,0
696,895,1403,25,bc0lf0s46f,non_conventional,<p>My laptop is broken.</p>,1,5,laptop,nonconventional,literal,0
697,902,14253,2,bl28hehgsa,conventional,<p>My laptop is broken.</p>,0,5,laptop,nonconventional,request,1
698,903,18526,3,bl28hehgsa,conventional,<p>Can you play the piano?</p>,0,8,piano,conventional,request,1
699,904,13471,4,bl28hehgsa,conventional,<p>Please dice this onion.</p>,0,15,tomatoes,direct,request,1
700,905,3487,5,bl28hehgsa,conventional,<p>My car isn't starting.</p>,1,1,car,nonconventional,literal,0
701,906,3311,6,bl28hehgsa,conventional,<p>Please clean up your room.</p>,0,17,clean,direct,request,1
702,907,2551,7,bl28hehgsa,conventional,<p>My office is really hot.</p>,0,6,office,nonconventional,request,1
703,908,5759,8,bl28hehgsa,conventional,<p>The dog is named Skip.</p>,1,21,dog,proposition,literal,0
704,909,6606,9,bl28hehgsa,conventional,<p>Can you change the temperature?</p>,0,12,temperature,conventional,request,1
705,910,5399,10,bl28hehgsa,conventional,<p>The United States is south of Canada.</p>,1,23,usa,proposition,literal,0
706,911,4719,11,bl28hehgsa,conventional,<p>Please refill my cup.</p>,0,13,salt,direct,request,1
707,912,5391,12,bl28hehgsa,conventional,<p>Can you lift that box?</p>,0,3,box,conventional,request,1
708,913,2942,13,bl28hehgsa,conventional,<p>My back is really sore.</p>,1,2,back,nonconventional,literal,0
709,914,3590,14,bl28hehgsa,conventional,<p>I am wearing a green hat.</p>,1,19,hat,proposition,literal,0
710,915,3366,15,bl28hehgsa,conventional,<p>My soup is cold.</p>,0,9,soup,nonconventional,request,1
711,916,4591,16,bl28hehgsa,conventional,<p>Can you say that in Spanish?</p>,0,10,spanish,conventional,request,1
712,917,3879,17,bl28hehgsa,conventional,<p>Please wash your clothes.</p>,0,16,laundry,direct,request,1
713,918,3847,18,bl28hehgsa,conventional,<p>Can you open that window?</p>,0,11,window,conventional,request,1
714,919,2615,19,bl28hehgsa,conventional,<p>Please turn off the television.</p>,0,14,television,direct,request,1
715,920,2055,20,bl28hehgsa,conventional,<p>Paris is the capital of France.</p>,1,20,Paris,proposition,literal,0
716,921,3831,21,bl28hehgsa,conventional,<p>My phone is dying.</p>,0,7,phone,nonconventional,request,1
717,922,3959,22,bl28hehgsa,conventional,<p>Please fix my faucet.</p>,0,18,faucet,direct,request,1
718,923,2135,23,bl28hehgsa,conventional,<p>I am six feet tall.</p>,1,22,tall,proposition,literal,0
719,924,3815,24,bl28hehgsa,conventional,<p>Can you close that door?</p>,0,4,door,conventional,request,1
720,925,4591,25,bl28hehgsa,conventional,<p>Cats are a kind of mammal.</p>,1,24,cats,proposition,literal,0
721,932,5105,2,bplbjtdtt1,conventional,<p>Can you open that window?</p>,0,11,window,conventional,request,1
722,933,2366,3,bplbjtdtt1,conventional,<p>Cats are a kind of mammal.</p>,1,24,cats,proposition,literal,0
723,934,2372,4,bplbjtdtt1,conventional,<p>The dog is named Skip.</p>,1,21,dog,proposition,literal,0
724,935,4927,5,bplbjtdtt1,conventional,<p>Can you say that in Spanish?</p>,0,10,spanish,conventional,request,1
725,936,2076,6,bplbjtdtt1,conventional,<p>Paris is the capital of France.</p>,1,20,Paris,proposition,literal,0
726,937,1583,7,bplbjtdtt1,conventional,<p>My soup is cold.</p>,1,9,soup,nonconventional,literal,0
727,938,3929,8,bplbjtdtt1,conventional,<p>Can you change the temperature?</p>,0,12,temperature,conventional,request,1
728,939,1368,9,bplbjtdtt1,conventional,<p>I am six feet tall.</p>,1,22,tall,proposition,literal,0
729,940,1847,10,bplbjtdtt1,conventional,<p>I am wearing a green hat.</p>,1,19,hat,proposition,literal,0
730,941,7850,11,bplbjtdtt1,conventional,<p>Can you lift that box?</p>,0,3,box,conventional,request,1
731,942,2415,12,bplbjtdtt1,conventional,<p>Please refill my cup.</p>,0,13,salt,direct,request,1
732,943,4826,13,bplbjtdtt1,conventional,<p>Can you play the piano?</p>,1,8,piano,conventional,literal,0
733,944,4170,14,bplbjtdtt1,conventional,<p>My laptop is broken.</p>,1,5,laptop,nonconventional,literal,0
734,945,8185,15,bplbjtdtt1,conventional,<p>Please fix my faucet.</p>,0,18,faucet,direct,request,1
735,946,5903,16,bplbjtdtt1,conventional,<p>My phone is dying.</p>,1,7,phone,nonconventional,literal,0
736,947,1759,17,bplbjtdtt1,conventional,<p>My car isn't starting.</p>,1,1,car,nonconventional,literal,0
737,948,2455,18,bplbjtdtt1,conventional,<p>The United States is south of Canada.</p>,1,23,usa,proposition,literal,0
738,949,2023,19,bplbjtdtt1,conventional,<p>Please turn off the television.</p>,0,14,television,direct,request,1
739,950,1924,20,bplbjtdtt1,conventional,<p>My back is really sore.</p>,1,2,back,nonconventional,literal,0
740,951,1898,21,bplbjtdtt1,conventional,<p>Please wash your clothes.</p>,0,16,laundry,direct,request,1
741,952,1875,22,bplbjtdtt1,conventional,<p>Please clean up your room.</p>,0,17,clean,direct,request,1
742,953,2616,23,bplbjtdtt1,conventional,<p>Please dice this onion.</p>,0,15,tomatoes,direct,request,1
743,954,1830,24,bplbjtdtt1,conventional,<p>My office is really hot.</p>,1,6,office,nonconventional,literal,0
744,955,16826,25,bplbjtdtt1,conventional,<p>Can you close that door?</p>,1,4,door,conventional,literal,0
745,962,2803,2,bs15tz1rj9,conventional,<p>Can you close that door?</p>,0,4,door,conventional,request,1
746,963,1526,3,bs15tz1rj9,conventional,<p>Can you lift that box?</p>,0,3,box,conventional,request,1
747,964,1145,4,bs15tz1rj9,conventional,<p>My office is really hot.</p>,1,6,office,nonconventional,literal,0
748,965,634,5,bs15tz1rj9,conventional,<p>My soup is cold.</p>,1,9,soup,nonconventional,literal,0
749,966,2961,6,bs15tz1rj9,conventional,<p>Please refill my cup.</p>,0,13,salt,direct,request,1
750,967,1626,7,bs15tz1rj9,conventional,<p>I am six feet tall.</p>,1,22,tall,proposition,literal,0
751,968,819,8,bs15tz1rj9,conventional,<p>The dog is named Skip.</p>,1,21,dog,proposition,literal,0
752,969,874,9,bs15tz1rj9,conventional,<p>Can you say that in Spanish?</p>,0,10,spanish,conventional,request,1
753,970,1183,10,bs15tz1rj9,conventional,<p>The United States is south of Canada.</p>,1,23,usa,proposition,literal,0
754,971,806,11,bs15tz1rj9,conventional,<p>Please wash your clothes.</p>,0,16,laundry,direct,request,1
755,972,4096,12,bs15tz1rj9,conventional,<p>Please dice this onion.</p>,0,15,tomatoes,direct,request,1
756,973,1854,13,bs15tz1rj9,conventional,<p>Please clean up your room.</p>,0,17,clean,direct,request,1
757,974,3317,14,bs15tz1rj9,conventional,<p>Paris is the capital of France.</p>,1,20,Paris,proposition,literal,0
758,975,966,15,bs15tz1rj9,conventional,<p>My back is really sore.</p>,1,2,back,nonconventional,literal,0
759,976,762,16,bs15tz1rj9,conventional,<p>My laptop is broken.</p>,1,5,laptop,nonconventional,literal,0
760,977,978,17,bs15tz1rj9,conventional,<p>My car isn't starting.</p>,1,1,car,nonconventional,literal,0
761,978,917,18,bs15tz1rj9,conventional,<p>I am wearing a green hat.</p>,1,19,hat,proposition,literal,0
762,979,1220,19,bs15tz1rj9,conventional,<p>Cats are a kind of mammal.</p>,1,24,cats,proposition,literal,0
763,980,995,20,bs15tz1rj9,conventional,<p>Please turn off the television.</p>,0,14,television,direct,request,1
764,981,787,21,bs15tz1rj9,conventional,<p>Can you play the piano?</p>,0,8,piano,conventional,request,1
765,982,691,22,bs15tz1rj9,conventional,<p>Can you change the temperature?</p>,0,12,temperature,conventional,request,1
766,983,1097,23,bs15tz1rj9,conventional,<p>Please fix my faucet.</p>,0,18,faucet,direct,request,1
767,984,1777,24,bs15tz1rj9,conventional,<p>My phone is dying.</p>,1,7,phone,nonconventional,literal,0
768,985,732,25,bs15tz1rj9,conventional,<p>Can you open that window?</p>,0,11,window,conventional,request,1
769,992,2349,2,bu52va6mu2,non_conventional,<p>My soup is cold.</p>,1,9,soup,nonconventional,literal,0
770,993,1156,3,bu52va6mu2,non_conventional,<p>Can you change the temperature?</p>,0,12,temperature,conventional,request,1
771,994,3345,4,bu52va6mu2,non_conventional,<p>My car isn't starting.</p>,1,1,car,nonconventional,literal,0
772,995,2361,5,bu52va6mu2,non_conventional,<p>Can you say that in Spanish?</p>,1,10,spanish,conventional,literal,0
773,996,1995,6,bu52va6mu2,non_conventional,<p>The dog is named Skip.</p>,1,21,dog,proposition,literal,0
774,997,2608,7,bu52va6mu2,non_conventional,<p>Can you play the piano?</p>,1,8,piano,conventional,literal,0
775,998,1063,8,bu52va6mu2,non_conventional,<p>My back is really sore.</p>,1,2,back,nonconventional,literal,0
776,999,1269,9,bu52va6mu2,non_conventional,<p>Cats are a kind of mammal.</p>,1,24,cats,proposition,literal,0
777,1000,884,10,bu52va6mu2,non_conventional,<p>My laptop is broken.</p>,1,5,laptop,nonconventional,literal,0
778,1001,3512,11,bu52va6mu2,non_conventional,<p>Can you lift that box?</p>,0,3,box,conventional,request,1
779,1002,1653,12,bu52va6mu2,non_conventional,<p>Please fix my faucet.</p>,0,18,faucet,direct,request,1
780,1003,1588,13,bu52va6mu2,non_conventional,<p>Can you open that window?</p>,0,11,window,conventional,request,1
781,1004,1186,14,bu52va6mu2,non_conventional,<p>Please clean up your room.</p>,0,17,clean,direct,request,1
782,1005,4890,15,bu52va6mu2,non_conventional,<p>I am wearing a green hat.</p>,1,19,hat,proposition,literal,0
783,1006,757,16,bu52va6mu2,non_conventional,<p>My phone is dying.</p>,1,7,phone,nonconventional,literal,0
784,1007,1704,17,bu52va6mu2,non_conventional,<p>The United States is south of Canada.</p>,1,23,usa,proposition,literal,0
785,1008,2046,18,bu52va6mu2,non_conventional,<p>Please turn off the television.</p>,0,14,television,direct,request,1
786,1009,1296,19,bu52va6mu2,non_conventional,<p>My office is really hot.</p>,1,6,office,nonconventional,literal,0
787,1010,974,20,bu52va6mu2,non_conventional,<p>I am six feet tall.</p>,1,22,tall,proposition,literal,0
788,1011,1449,21,bu52va6mu2,non_conventional,<p>Please wash your clothes.</p>,0,16,laundry,direct,request,1
789,1012,880,22,bu52va6mu2,non_conventional,<p>Please refill my cup.</p>,0,13,salt,direct,request,1
790,1013,1514,23,bu52va6mu2,non_conventional,<p>Can you close that door?</p>,0,4,door,conventional,request,1
791,1014,1077,24,bu52va6mu2,non_conventional,<p>Please dice this onion.</p>,0,15,tomatoes,direct,request,1
792,1015,1339,25,bu52va6mu2,non_conventional,<p>Paris is the capital of France.</p>,1,20,Paris,proposition,literal,0
793,1022,3664,2,cua7ml3scj,conventional,<p>Cats are a kind of mammal.</p>,1,24,cats,proposition,literal,0
794,1023,1790,3,cua7ml3scj,conventional,<p>Can you open that window?</p>,0,11,window,conventional,request,1
795,1024,30647,4,cua7ml3scj,conventional,<p>Please clean up your room.</p>,0,17,clean,direct,request,1
796,1025,1455,5,cua7ml3scj,conventional,<p>My car isn't starting.</p>,1,1,car,nonconventional,literal,0
797,1026,1095,6,cua7ml3scj,conventional,<p>Can you say that in Spanish?</p>,0,10,spanish,conventional,request,1
798,1027,1088,7,cua7ml3scj,conventional,<p>Please wash your clothes.</p>,0,16,laundry,direct,request,1
799,1028,1551,8,cua7ml3scj,conventional,<p>Paris is the capital of France.</p>,1,20,Paris,proposition,literal,0
800,1029,1127,9,cua7ml3scj,conventional,<p>The dog is named Skip.</p>,1,21,dog,proposition,literal,0
801,1030,839,10,cua7ml3scj,conventional,<p>Can you close that door?</p>,0,4,door,conventional,request,1
802,1031,1048,11,cua7ml3scj,conventional,<p>Can you lift that box?</p>,0,3,box,conventional,request,1
803,1032,1407,12,cua7ml3scj,conventional,<p>My phone is dying.</p>,1,7,phone,nonconventional,literal,0
804,1033,1776,13,cua7ml3scj,conventional,<p>The United States is south of Canada.</p>,1,23,usa,proposition,literal,0
805,1034,1943,14,cua7ml3scj,conventional,<p>Please dice this onion.</p>,0,15,tomatoes,direct,request,1
806,1035,953,15,cua7ml3scj,conventional,<p>My laptop is broken.</p>,1,5,laptop,nonconventional,literal,0
807,1036,766,16,cua7ml3scj,conventional,<p>Please turn off the television.</p>,0,14,television,direct,request,1
808,1037,984,17,cua7ml3scj,conventional,<p>My office is really hot.</p>,1,6,office,nonconventional,literal,0
809,1038,872,18,cua7ml3scj,conventional,<p>Please fix my faucet.</p>,0,18,faucet,direct,request,1
810,1039,879,19,cua7ml3scj,conventional,<p>I am wearing a green hat.</p>,1,19,hat,proposition,literal,0
811,1040,768,20,cua7ml3scj,conventional,<p>Can you change the temperature?</p>,0,12,temperature,conventional,request,1
812,1041,1175,21,cua7ml3scj,conventional,<p>Can you play the piano?</p>,0,8,piano,conventional,request,1
813,1042,1616,22,cua7ml3scj,conventional,<p>My back is really sore.</p>,1,2,back,nonconventional,literal,0
814,1043,1407,23,cua7ml3scj,conventional,<p>I am six feet tall.</p>,1,22,tall,proposition,literal,0
815,1044,864,24,cua7ml3scj,conventional,<p>My soup is cold.</p>,1,9,soup,nonconventional,literal,0
816,1045,776,25,cua7ml3scj,conventional,<p>Please refill my cup.</p>,0,13,salt,direct,request,1
817,1052,1740,2,dnqn59af6o,conventional,<p>My laptop is broken.</p>,1,5,laptop,nonconventional,literal,0
818,1053,1497,3,dnqn59af6o,conventional,<p>Can you lift that box?</p>,0,3,box,conventional,request,1
819,1054,935,4,dnqn59af6o,conventional,<p>Please fix my faucet.</p>,0,18,faucet,direct,request,1
820,1055,983,5,dnqn59af6o,conventional,<p>Please dice this onion.</p>,0,15,tomatoes,direct,request,1
821,1056,1015,6,dnqn59af6o,conventional,<p>Please refill my cup.</p>,0,13,salt,direct,request,1
822,1057,1577,7,dnqn59af6o,conventional,<p>Can you play the piano?</p>,0,8,piano,conventional,request,1
823,1058,2936,8,dnqn59af6o,conventional,<p>The dog is named Skip.</p>,1,21,dog,proposition,literal,0
824,1059,1093,9,dnqn59af6o,conventional,<p>Can you open that window?</p>,0,11,window,conventional,request,1
825,1060,1293,10,dnqn59af6o,conventional,<p>Paris is the capital of France.</p>,1,20,Paris,proposition,literal,0
826,1061,1240,11,dnqn59af6o,conventional,<p>Cats are a kind of mammal.</p>,1,24,cats,proposition,literal,0
827,1062,1129,12,dnqn59af6o,conventional,<p>Can you change the temperature?</p>,0,12,temperature,conventional,request,1
828,1063,1243,13,dnqn59af6o,conventional,<p>Can you say that in Spanish?</p>,0,10,spanish,conventional,request,1
829,1064,1319,14,dnqn59af6o,conventional,<p>My back is really sore.</p>,1,2,back,nonconventional,literal,0
830,1065,999,15,dnqn59af6o,conventional,<p>The United States is south of Canada.</p>,1,23,usa,proposition,literal,0
831,1066,1248,16,dnqn59af6o,conventional,<p>My phone is dying.</p>,1,7,phone,nonconventional,literal,0
832,1067,1249,17,dnqn59af6o,conventional,<p>Please turn off the television.</p>,0,14,television,direct,request,1
833,1068,1233,18,dnqn59af6o,conventional,<p>Please clean up your room.</p>,0,17,clean,direct,request,1
834,1069,880,19,dnqn59af6o,conventional,<p>Please wash your clothes.</p>,0,16,laundry,direct,request,1
835,1070,1020,20,dnqn59af6o,conventional,<p>Can you close that door?</p>,0,4,door,conventional,request,1
836,1071,1248,21,dnqn59af6o,conventional,<p>My office is really hot.</p>,1,6,office,nonconventional,literal,0
837,1072,1298,22,dnqn59af6o,conventional,<p>My soup is cold.</p>,1,9,soup,nonconventional,literal,0
838,1073,1161,23,dnqn59af6o,conventional,<p>My car isn't starting.</p>,1,1,car,nonconventional,literal,0
839,1074,967,24,dnqn59af6o,conventional,<p>I am wearing a green hat.</p>,1,19,hat,proposition,literal,0
840,1075,1195,25,dnqn59af6o,conventional,<p>I am six feet tall.</p>,1,22,tall,proposition,literal,0
841,1082,3225,2,e1wbkmk8pc,conventional,<p>Can you play the piano?</p>,0,8,piano,conventional,request,1
842,1083,3689,3,e1wbkmk8pc,conventional,<p>Paris is the capital of France.</p>,1,20,Paris,proposition,literal,0
843,1084,4516,4,e1wbkmk8pc,conventional,<p>Please clean up your room.</p>,0,17,clean,direct,request,1
844,1085,1351,5,e1wbkmk8pc,conventional,<p>Please turn off the television.</p>,0,14,television,direct,request,1
845,1086,1970,6,e1wbkmk8pc,conventional,<p>My car isn't starting.</p>,1,1,car,nonconventional,literal,0
846,1087,2288,7,e1wbkmk8pc,conventional,<p>Can you lift that box?</p>,0,3,box,conventional,request,1
847,1088,2555,8,e1wbkmk8pc,conventional,<p>My phone is dying.</p>,1,7,phone,nonconventional,literal,0
848,1089,1899,9,e1wbkmk8pc,conventional,<p>Can you say that in Spanish?</p>,0,10,spanish,conventional,request,1
849,1090,1971,10,e1wbkmk8pc,conventional,<p>My office is really hot.</p>,1,6,office,nonconventional,literal,0
850,1091,1590,11,e1wbkmk8pc,conventional,<p>The United States is south of Canada.</p>,1,23,usa,proposition,literal,0
851,1092,1571,12,e1wbkmk8pc,conventional,<p>Can you open that window?</p>,0,11,window,conventional,request,1
852,1093,1457,13,e1wbkmk8pc,conventional,<p>I am six feet tall.</p>,1,22,tall,proposition,literal,0
853,1094,1885,14,e1wbkmk8pc,conventional,<p>Can you change the temperature?</p>,0,12,temperature,conventional,request,1
854,1095,2721,15,e1wbkmk8pc,conventional,<p>My soup is cold.</p>,1,9,soup,nonconventional,literal,0
855,1096,1338,16,e1wbkmk8pc,conventional,<p>Please wash your clothes.</p>,0,16,laundry,direct,request,1
856,1097,7357,17,e1wbkmk8pc,conventional,<p>I am wearing a green hat.</p>,1,19,hat,proposition,literal,0
857,1098,3556,18,e1wbkmk8pc,conventional,<p>Can you close that door?</p>,0,4,door,conventional,request,1
858,1099,1375,19,e1wbkmk8pc,conventional,<p>My laptop is broken.</p>,1,5,laptop,nonconventional,literal,0
859,1100,11048,20,e1wbkmk8pc,conventional,<p>Please dice this onion.</p>,0,15,tomatoes,direct,request,1
860,1101,11958,21,e1wbkmk8pc,conventional,<p>Please fix my faucet.</p>,0,18,faucet,direct,request,1
861,1102,2727,22,e1wbkmk8pc,conventional,<p>Cats are a kind of mammal.</p>,1,24,cats,proposition,literal,0
862,1103,42074,23,e1wbkmk8pc,conventional,<p>My back is really sore.</p>,1,2,back,nonconventional,literal,0
863,1104,1605,24,e1wbkmk8pc,conventional,<p>The dog is named Skip.</p>,1,21,dog,proposition,literal,0
864,1105,2239,25,e1wbkmk8pc,conventional,<p>Please refill my cup.</p>,0,13,salt,direct,request,1
865,1112,1566,2,e2rcd9p44y,conventional,<p>Can you close that door?</p>,0,4,door,conventional,request,1
866,1113,1381,3,e2rcd9p44y,conventional,<p>Please clean up your room.</p>,0,17,clean,direct,request,1
867,1114,3279,4,e2rcd9p44y,conventional,<p>My phone is dying.</p>,0,7,phone,nonconventional,request,1
868,1115,1656,5,e2rcd9p44y,conventional,<p>Cats are a kind of mammal.</p>,1,24,cats,proposition,literal,0
869,1116,1749,6,e2rcd9p44y,conventional,<p>Please dice this onion.</p>,0,15,tomatoes,direct,request,1
870,1117,1671,7,e2rcd9p44y,conventional,<p>I am six feet tall.</p>,1,22,tall,proposition,literal,0
871,1118,1015,8,e2rcd9p44y,conventional,<p>Can you lift that box?</p>,0,3,box,conventional,request,1
872,1119,1183,9,e2rcd9p44y,conventional,<p>The dog is named Skip.</p>,1,21,dog,proposition,literal,0
873,1120,1585,10,e2rcd9p44y,conventional,<p>My car isn't starting.</p>,0,1,car,nonconventional,request,1
874,1121,1029,11,e2rcd9p44y,conventional,<p>My laptop is broken.</p>,0,5,laptop,nonconventional,request,1
875,1122,1057,12,e2rcd9p44y,conventional,<p>Can you say that in Spanish?</p>,0,10,spanish,conventional,request,1
876,1123,1291,13,e2rcd9p44y,conventional,<p>Please wash your clothes.</p>,0,16,laundry,direct,request,1
877,1124,2600,14,e2rcd9p44y,conventional,<p>Can you change the temperature?</p>,0,12,temperature,conventional,request,1
878,1125,1036,15,e2rcd9p44y,conventional,<p>My soup is cold.</p>,0,9,soup,nonconventional,request,1
879,1126,775,16,e2rcd9p44y,conventional,<p>Can you open that window?</p>,0,11,window,conventional,request,1
880,1127,936,17,e2rcd9p44y,conventional,<p>Please fix my faucet.</p>,0,18,faucet,direct,request,1
881,1128,2175,18,e2rcd9p44y,conventional,<p>My back is really sore.</p>,0,2,back,nonconventional,request,1
882,1129,5949,19,e2rcd9p44y,conventional,<p>Please turn off the television.</p>,0,14,television,direct,request,1
883,1130,1006,20,e2rcd9p44y,conventional,<p>Please refill my cup.</p>,0,13,salt,direct,request,1
884,1131,1655,21,e2rcd9p44y,conventional,<p>I am wearing a green hat.</p>,1,19,hat,proposition,literal,0
885,1132,887,22,e2rcd9p44y,conventional,<p>Can you play the piano?</p>,0,8,piano,conventional,request,1
886,1133,1151,23,e2rcd9p44y,conventional,<p>My office is really hot.</p>,0,6,office,nonconventional,request,1
887,1134,1847,24,e2rcd9p44y,conventional,<p>The United States is south of Canada.</p>,1,23,usa,proposition,literal,0
888,1135,1110,25,e2rcd9p44y,conventional,<p>Paris is the capital of France.</p>,1,20,Paris,proposition,literal,0
889,1142,4155,2,eya6mu7ov5,non_conventional,<p>The dog is named Skip.</p>,1,21,dog,proposition,literal,0
890,1143,2484,3,eya6mu7ov5,non_conventional,<p>My soup is cold.</p>,1,9,soup,nonconventional,literal,0
891,1144,3015,4,eya6mu7ov5,non_conventional,<p>Please dice this onion.</p>,0,15,tomatoes,direct,request,1
892,1145,1809,5,eya6mu7ov5,non_conventional,<p>Paris is the capital of France.</p>,1,20,Paris,proposition,literal,0
893,1146,4589,6,eya6mu7ov5,non_conventional,<p>Can you change the temperature?</p>,0,12,temperature,conventional,request,1
894,1147,1693,7,eya6mu7ov5,non_conventional,<p>Can you close that door?</p>,0,4,door,conventional,request,1
895,1148,2769,8,eya6mu7ov5,non_conventional,<p>The United States is south of Canada.</p>,1,23,usa,proposition,literal,0
896,1149,1487,9,eya6mu7ov5,non_conventional,<p>My back is really sore.</p>,1,2,back,nonconventional,literal,0
897,1150,1409,10,eya6mu7ov5,non_conventional,<p>I am six feet tall.</p>,1,22,tall,proposition,literal,0
898,1151,3713,11,eya6mu7ov5,non_conventional,<p>Can you play the piano?</p>,1,8,piano,conventional,literal,0
899,1152,2425,12,eya6mu7ov5,non_conventional,<p>Please turn off the television.</p>,0,14,television,direct,request,1
900,1153,2219,13,eya6mu7ov5,non_conventional,<p>Can you say that in Spanish?</p>,0,10,spanish,conventional,request,1
901,1154,1817,14,eya6mu7ov5,non_conventional,<p>My phone is dying.</p>,1,7,phone,nonconventional,literal,0
902,1155,1117,15,eya6mu7ov5,non_conventional,<p>My car isn't starting.</p>,1,1,car,nonconventional,literal,0
903,1156,4335,16,eya6mu7ov5,non_conventional,<p>Please wash your clothes.</p>,0,16,laundry,direct,request,1
904,1157,1095,17,eya6mu7ov5,non_conventional,<p>Please clean up your room.</p>,0,17,clean,direct,request,1
905,1158,1557,18,eya6mu7ov5,non_conventional,<p>Cats are a kind of mammal.</p>,1,24,cats,proposition,literal,0
906,1159,2045,19,eya6mu7ov5,non_conventional,<p>Please fix my faucet.</p>,0,18,faucet,direct,request,1
907,1160,1093,20,eya6mu7ov5,non_conventional,<p>Please refill my cup.</p>,0,13,salt,direct,request,1
908,1161,1402,21,eya6mu7ov5,non_conventional,<p>I am wearing a green hat.</p>,1,19,hat,proposition,literal,0
909,1162,1400,22,eya6mu7ov5,non_conventional,<p>My laptop is broken.</p>,1,5,laptop,nonconventional,literal,0
910,1163,1761,23,eya6mu7ov5,non_conventional,<p>Can you open that window?</p>,0,11,window,conventional,request,1
911,1164,1353,24,eya6mu7ov5,non_conventional,<p>My office is really hot.</p>,1,6,office,nonconventional,literal,0
912,1165,1511,25,eya6mu7ov5,non_conventional,<p>Can you lift that box?</p>,0,3,box,conventional,request,1
913,1172,5800,2,fepzls3vqp,conventional,<p>Can you close that door?</p>,0,4,door,conventional,request,1
914,1173,1225,3,fepzls3vqp,conventional,<p>Please wash your clothes.</p>,0,16,laundry,direct,request,1
915,1174,962,4,fepzls3vqp,conventional,<p>Please refill my cup.</p>,0,13,salt,direct,request,1
916,1175,1076,5,fepzls3vqp,conventional,<p>Paris is the capital of France.</p>,0,20,Paris,proposition,request,1
917,1176,878,6,fepzls3vqp,conventional,<p>Please clean up your room.</p>,0,17,clean,direct,request,1
918,1177,2582,7,fepzls3vqp,conventional,<p>My soup is cold.</p>,1,9,soup,nonconventional,literal,0
919,1178,802,8,fepzls3vqp,conventional,<p>I am wearing a green hat.</p>,0,19,hat,proposition,request,1
920,1179,875,9,fepzls3vqp,conventional,<p>Please turn off the television.</p>,1,14,television,direct,literal,0
921,1180,567,10,fepzls3vqp,conventional,<p>My back is really sore.</p>,0,2,back,nonconventional,request,1
922,1181,772,11,fepzls3vqp,conventional,<p>Can you say that in Spanish?</p>,1,10,spanish,conventional,literal,0
923,1182,554,12,fepzls3vqp,conventional,<p>My office is really hot.</p>,0,6,office,nonconventional,request,1
924,1183,706,13,fepzls3vqp,conventional,<p>I am six feet tall.</p>,1,22,tall,proposition,literal,0
925,1184,1243,14,fepzls3vqp,conventional,<p>My laptop is broken.</p>,0,5,laptop,nonconventional,request,1
926,1185,772,15,fepzls3vqp,conventional,<p>My car isn't starting.</p>,1,1,car,nonconventional,literal,0
927,1186,865,16,fepzls3vqp,conventional,<p>The dog is named Skip.</p>,0,21,dog,proposition,request,1
