,rt,trial_index,subject,form_assignment,passed_test,button_pressed,condition,stimNum,topic,speaker,form,response,correct,already_heard_by_speaker,numeric_response,Order
1,1391,8,02fbh93pal,conventional,yes,0,Non-Request,11,window,S4,conventional,request,0,No,1,1
2,1229,10,02fbh93pal,conventional,yes,0,Request,12,temperature,S4,conventional,request,1,No,1,2
3,3603,12,02fbh93pal,conventional,yes,0,Request,10,spanish,S4,conventional,request,1,No,1,3
4,1244,14,02fbh93pal,conventional,yes,0,Request,4,door,S4,conventional,request,1,No,1,4
5,1388,16,02fbh93pal,conventional,yes,0,Request,11,window,S4,conventional,request,1,Yes,1,5
6,19717,18,02fbh93pal,conventional,yes,1,Request,8,piano,S4,conventional,literal,0,No,0,6
7,7301,20,02fbh93pal,conventional,yes,0,Request,3,box,S4,conventional,request,1,No,1,7
8,1780,22,02fbh93pal,conventional,yes,1,Non-Request,10,spanish,S4,conventional,literal,1,Yes,0,8
9,19425,24,02fbh93pal,conventional,yes,1,Non-Request,4,door,S4,conventional,literal,1,Yes,0,9
10,5043,26,02fbh93pal,conventional,yes,1,Non-Request,12,temperature,S4,conventional,literal,1,Yes,0,10
11,2445,28,02fbh93pal,conventional,yes,1,Non-Request,8,piano,S4,conventional,literal,1,Yes,0,11
12,2940,30,02fbh93pal,conventional,yes,1,Non-Request,3,box,S4,conventional,literal,1,Yes,0,12
13,1388,32,02fbh93pal,conventional,yes,0,Request,3,box,S5,conventional,request,1,No,1,13
14,5052,34,02fbh93pal,conventional,yes,0,Non-Request,12,temperature,S5,conventional,request,0,No,1,14
15,1561,36,02fbh93pal,conventional,yes,1,Request,10,spanish,S5,conventional,literal,0,No,0,15
16,1514,38,02fbh93pal,conventional,yes,0,Request,12,temperature,S5,conventional,request,1,Yes,1,16
17,2618,40,02fbh93pal,conventional,yes,0,Non-Request,4,door,S5,conventional,request,0,No,1,17
18,1268,42,02fbh93pal,conventional,yes,1,Request,8,piano,S5,conventional,literal,0,No,0,18
19,1557,44,02fbh93pal,conventional,yes,0,Request,11,window,S5,conventional,request,1,No,1,19
20,16246,46,02fbh93pal,conventional,yes,1,Non-Request,11,window,S5,conventional,literal,1,Yes,0,20
21,1230,48,02fbh93pal,conventional,yes,0,Request,4,door,S5,conventional,request,1,Yes,1,21
22,3716,50,02fbh93pal,conventional,yes,1,Non-Request,3,box,S5,conventional,literal,1,Yes,0,22
23,54141,52,02fbh93pal,conventional,yes,1,Non-Request,10,spanish,S5,conventional,literal,1,Yes,0,23
24,3339,54,02fbh93pal,conventional,yes,1,Non-Request,8,piano,S5,conventional,literal,1,Yes,0,24
25,3753,56,02fbh93pal,conventional,yes,1,Non-Request,10,spanish,S1,conventional,literal,1,No,0,25
26,1854,58,02fbh93pal,conventional,yes,1,Non-Request,11,window,S1,conventional,literal,1,No,0,26
27,2188,60,02fbh93pal,conventional,yes,1,Request,8,piano,S1,conventional,literal,0,No,0,27
28,1138,62,02fbh93pal,conventional,yes,0,Non-Request,8,piano,S1,conventional,request,0,Yes,1,28
29,4724,64,02fbh93pal,conventional,yes,1,Request,4,door,S1,conventional,literal,0,No,0,29
30,3426,66,02fbh93pal,conventional,yes,1,Request,12,temperature,S1,conventional,literal,0,No,0,30
31,756,68,02fbh93pal,conventional,yes,1,Non-Request,3,box,S1,conventional,literal,1,No,0,31
32,6576,70,02fbh93pal,conventional,yes,1,Request,10,spanish,S1,conventional,literal,0,Yes,0,32
33,1476,72,02fbh93pal,conventional,yes,1,Request,3,box,S1,conventional,literal,0,Yes,0,33
34,866,74,02fbh93pal,conventional,yes,1,Request,11,window,S1,conventional,literal,0,Yes,0,34
35,2072,76,02fbh93pal,conventional,yes,1,Non-Request,4,door,S1,conventional,literal,1,Yes,0,35
36,1366,78,02fbh93pal,conventional,yes,1,Non-Request,12,temperature,S1,conventional,literal,1,Yes,0,36
37,1118,80,02fbh93pal,conventional,yes,0,Request,12,temperature,S3,conventional,request,1,No,1,37
38,1430,82,02fbh93pal,conventional,yes,0,Request,10,spanish,S3,conventional,request,1,No,1,38
39,1158,84,02fbh93pal,conventional,yes,1,Non-Request,11,window,S3,conventional,literal,1,No,0,39
40,1418,86,02fbh93pal,conventional,yes,1,Non-Request,10,spanish,S3,conventional,literal,1,Yes,0,40
41,2873,88,02fbh93pal,conventional,yes,1,Request,3,box,S3,conventional,literal,0,No,0,41
42,2857,90,02fbh93pal,conventional,yes,1,Non-Request,8,piano,S3,conventional,literal,1,No,0,42
43,820,92,02fbh93pal,conventional,yes,1,Non-Request,12,temperature,S3,conventional,literal,1,Yes,0,43
44,1141,94,02fbh93pal,conventional,yes,0,Request,11,window,S3,conventional,request,1,Yes,1,44
45,4219,96,02fbh93pal,conventional,yes,1,Request,4,door,S3,conventional,literal,0,No,0,45
46,808,98,02fbh93pal,conventional,yes,1,Non-Request,3,box,S3,conventional,literal,1,Yes,0,46
47,2831,100,02fbh93pal,conventional,yes,1,Request,8,piano,S3,conventional,literal,0,Yes,0,47
48,827,102,02fbh93pal,conventional,yes,1,Non-Request,4,door,S3,conventional,literal,1,Yes,0,48
49,3330,104,02fbh93pal,conventional,yes,1,Non-Request,8,piano,S2,conventional,literal,1,No,0,49
50,2319,106,02fbh93pal,conventional,yes,1,Non-Request,3,box,S2,conventional,literal,1,No,0,50
51,2148,108,02fbh93pal,conventional,yes,1,Request,8,piano,S2,conventional,literal,0,Yes,0,51
52,1684,110,02fbh93pal,conventional,yes,1,Non-Request,10,spanish,S2,conventional,literal,1,No,0,52
53,7747,112,02fbh93pal,conventional,yes,1,Non-Request,11,window,S2,conventional,literal,1,No,0,53
54,1765,114,02fbh93pal,conventional,yes,1,Request,11,window,S2,conventional,literal,0,Yes,0,54
55,3558,116,02fbh93pal,conventional,yes,1,Request,3,box,S2,conventional,literal,0,Yes,0,55
56,1189,118,02fbh93pal,conventional,yes,1,Request,10,spanish,S2,conventional,literal,0,Yes,0,56
57,2398,120,02fbh93pal,conventional,yes,1,Non-Request,4,door,S2,conventional,literal,1,No,0,57
58,969,122,02fbh93pal,conventional,yes,1,Non-Request,12,temperature,S2,conventional,literal,1,No,0,58
59,2341,124,02fbh93pal,conventional,yes,0,Request,4,door,S2,conventional,request,1,Yes,1,59
60,855,126,02fbh93pal,conventional,yes,1,Request,12,temperature,S2,conventional,literal,0,Yes,0,60
61,697,8,0b34ozgzqe,conventional,yes,0,Non-Request,11,window,S5,conventional,request,0,No,1,1
62,375,10,0b34ozgzqe,conventional,yes,0,Request,3,box,S5,conventional,request,1,No,1,2
63,313,12,0b34ozgzqe,conventional,yes,0,Request,4,door,S5,conventional,request,1,No,1,3
64,190,14,0b34ozgzqe,conventional,yes,0,Non-Request,12,temperature,S5,conventional,request,0,No,1,4
65,305,16,0b34ozgzqe,conventional,yes,0,Non-Request,4,door,S5,conventional,request,0,Yes,1,5
66,482,18,0b34ozgzqe,conventional,yes,0,Request,11,window,S5,conventional,request,1,Yes,1,6
67,461,20,0b34ozgzqe,conventional,yes,0,Request,10,spanish,S5,conventional,request,1,No,1,7
68,219,22,0b34ozgzqe,conventional,yes,0,Request,8,piano,S5,conventional,request,1,No,1,8
69,326,24,0b34ozgzqe,conventional,yes,0,Request,12,temperature,S5,conventional,request,1,Yes,1,9
70,297,26,0b34ozgzqe,conventional,yes,0,Non-Request,8,piano,S5,conventional,request,0,Yes,1,10
71,468,28,0b34ozgzqe,conventional,yes,0,Non-Request,3,box,S5,conventional,request,0,Yes,1,11
72,382,30,0b34ozgzqe,conventional,yes,0,Non-Request,10,spanish,S5,conventional,request,0,Yes,1,12
73,669,32,0b34ozgzqe,conventional,yes,0,Non-Request,8,piano,S4,conventional,request,0,No,1,13
74,2110,34,0b34ozgzqe,conventional,yes,0,Request,10,spanish,S4,conventional,request,1,No,1,14
75,2173,36,0b34ozgzqe,conventional,yes,1,Non-Request,3,box,S4,conventional,literal,1,No,0,15
76,2311,38,0b34ozgzqe,conventional,yes,0,Request,8,piano,S4,conventional,request,1,Yes,1,16
77,769,40,0b34ozgzqe,conventional,yes,0,Non-Request,11,window,S4,conventional,request,0,No,1,17
78,824,42,0b34ozgzqe,conventional,yes,1,Non-Request,10,spanish,S4,conventional,literal,1,Yes,0,18
79,815,44,0b34ozgzqe,conventional,yes,0,Request,12,temperature,S4,conventional,request,1,No,1,19
80,636,46,0b34ozgzqe,conventional,yes,0,Request,3,box,S4,conventional,request,1,Yes,1,20
81,668,48,0b34ozgzqe,conventional,yes,0,Request,4,door,S4,conventional,request,1,No,1,21
82,451,50,0b34ozgzqe,conventional,yes,0,Request,11,window,S4,conventional,request,1,Yes,1,22
83,483,52,0b34ozgzqe,conventional,yes,0,Non-Request,12,temperature,S4,conventional,request,0,Yes,1,23
84,5999,54,0b34ozgzqe,conventional,yes,0,Non-Request,4,door,S4,conventional,request,0,Yes,1,24
85,1707,56,0b34ozgzqe,conventional,yes,0,Non-Request,4,door,S2,conventional,request,0,No,1,25
86,4484,58,0b34ozgzqe,conventional,yes,0,Request,12,temperature,S2,conventional,request,1,No,1,26
87,237,60,0b34ozgzqe,conventional,yes,0,Request,4,door,S2,conventional,request,1,Yes,1,27
88,458,62,0b34ozgzqe,conventional,yes,0,Request,3,box,S2,conventional,request,1,No,1,28
89,647,64,0b34ozgzqe,conventional,yes,1,Request,8,piano,S2,conventional,literal,0,No,0,29
90,1884,66,0b34ozgzqe,conventional,yes,0,Request,11,window,S2,conventional,request,1,No,1,30
91,395,68,0b34ozgzqe,conventional,yes,0,Non-Request,12,temperature,S2,conventional,request,0,Yes,1,31
92,490,70,0b34ozgzqe,conventional,yes,0,Non-Request,10,spanish,S2,conventional,request,0,No,1,32
93,204,72,0b34ozgzqe,conventional,yes,1,Non-Request,8,piano,S2,conventional,literal,1,Yes,0,33
94,465,74,0b34ozgzqe,conventional,yes,1,Non-Request,3,box,S2,conventional,literal,1,Yes,0,34
95,2171,76,0b34ozgzqe,conventional,yes,1,Request,10,spanish,S2,conventional,literal,0,Yes,0,35
96,1658,78,0b34ozgzqe,conventional,yes,0,Non-Request,11,window,S2,conventional,request,0,Yes,1,36
97,369,80,0b34ozgzqe,conventional,yes,0,Non-Request,12,temperature,S1,conventional,request,0,No,1,37
98,526,82,0b34ozgzqe,conventional,yes,0,Request,12,temperature,S1,conventional,request,1,Yes,1,38
99,1008,84,0b34ozgzqe,conventional,yes,1,Non-Request,8,piano,S1,conventional,literal,1,No,0,39
100,665,86,0b34ozgzqe,conventional,yes,0,Request,4,door,S1,conventional,request,1,No,1,40
101,1305,88,0b34ozgzqe,conventional,yes,0,Request,8,piano,S1,conventional,request,1,Yes,1,41
102,1683,90,0b34ozgzqe,conventional,yes,0,Non-Request,11,window,S1,conventional,request,0,No,1,42
103,1310,92,0b34ozgzqe,conventional,yes,0,Request,11,window,S1,conventional,request,1,Yes,1,43
104,1236,94,0b34ozgzqe,conventional,yes,0,Request,10,spanish,S1,conventional,request,1,No,1,44
105,6824,96,0b34ozgzqe,conventional,yes,0,Request,3,box,S1,conventional,request,1,No,1,45
106,387,98,0b34ozgzqe,conventional,yes,0,Non-Request,3,box,S1,conventional,request,0,Yes,1,46
107,612,100,0b34ozgzqe,conventional,yes,0,Non-Request,10,spanish,S1,conventional,request,0,Yes,1,47
108,613,102,0b34ozgzqe,conventional,yes,0,Non-Request,4,door,S1,conventional,request,0,Yes,1,48
109,551,104,0b34ozgzqe,conventional,yes,0,Request,12,temperature,S3,conventional,request,1,No,1,49
110,746,106,0b34ozgzqe,conventional,yes,0,Request,4,door,S3,conventional,request,1,No,1,50
111,437,108,0b34ozgzqe,conventional,yes,0,Request,11,window,S3,conventional,request,1,No,1,51
112,887,110,0b34ozgzqe,conventional,yes,1,Non-Request,11,window,S3,conventional,literal,1,Yes,0,52
113,365,112,0b34ozgzqe,conventional,yes,1,Non-Request,10,spanish,S3,conventional,literal,1,No,0,53
114,337,114,0b34ozgzqe,conventional,yes,1,Non-Request,12,temperature,S3,conventional,literal,1,Yes,0,54
115,5285,116,0b34ozgzqe,conventional,yes,1,Request,8,piano,S3,conventional,literal,0,No,0,55
116,248,118,0b34ozgzqe,conventional,yes,1,Non-Request,3,box,S3,conventional,literal,1,No,0,56
117,1550,120,0b34ozgzqe,conventional,yes,0,Request,10,spanish,S3,conventional,request,1,Yes,1,57
118,674,122,0b34ozgzqe,conventional,yes,1,Non-Request,4,door,S3,conventional,literal,1,Yes,0,58
119,2747,124,0b34ozgzqe,conventional,yes,1,Non-Request,8,piano,S3,conventional,literal,1,Yes,0,59
120,726,126,0b34ozgzqe,conventional,yes,0,Request,3,box,S3,conventional,request,1,Yes,1,60
121,914,8,0kqub3d84k,conventional,yes,0,Request,11,window,S3,conventional,request,1,No,1,1
122,1726,10,0kqub3d84k,conventional,yes,0,Request,12,temperature,S3,conventional,request,1,No,1,2
123,3514,12,0kqub3d84k,conventional,yes,0,Request,4,door,S3,conventional,request,1,No,1,3
124,1783,14,0kqub3d84k,conventional,yes,1,Non-Request,3,box,S3,conventional,literal,1,No,0,4
125,832,16,0kqub3d84k,conventional,yes,0,Request,8,piano,S3,conventional,request,1,No,1,5
126,692,18,0kqub3d84k,conventional,yes,1,Non-Request,12,temperature,S3,conventional,literal,1,Yes,0,6
127,448,20,0kqub3d84k,conventional,yes,1,Non-Request,4,door,S3,conventional,literal,1,Yes,0,7
128,371,22,0kqub3d84k,conventional,yes,1,Non-Request,11,window,S3,conventional,literal,1,Yes,0,8
129,413,24,0kqub3d84k,conventional,yes,0,Request,10,spanish,S3,conventional,request,1,No,1,9
130,704,26,0kqub3d84k,conventional,yes,0,Request,3,box,S3,conventional,request,1,Yes,1,10
131,586,28,0kqub3d84k,conventional,yes,1,Non-Request,10,spanish,S3,conventional,literal,1,Yes,0,11
132,417,30,0kqub3d84k,conventional,yes,1,Non-Request,8,piano,S3,conventional,literal,1,Yes,0,12
133,704,32,0kqub3d84k,conventional,yes,0,Non-Request,12,temperature,S4,conventional,request,0,No,1,13
134,13913,34,0kqub3d84k,conventional,yes,0,Request,10,spanish,S4,conventional,request,1,No,1,14
135,1053,36,0kqub3d84k,conventional,yes,1,Non-Request,3,box,S4,conventional,literal,1,No,0,15
136,800,38,0kqub3d84k,conventional,yes,1,Non-Request,8,piano,S4,conventional,literal,1,No,0,16
137,544,40,0kqub3d84k,conventional,yes,0,Request,3,box,S4,conventional,request,1,Yes,1,17
138,305,42,0kqub3d84k,conventional,yes,0,Non-Request,11,window,S4,conventional,request,0,No,1,18
139,1127,44,0kqub3d84k,conventional,yes,0,Non-Request,4,door,S4,conventional,request,0,No,1,19
140,316,46,0kqub3d84k,conventional,yes,0,Request,11,window,S4,conventional,request,1,Yes,1,20
141,359,48,0kqub3d84k,conventional,yes,0,Request,4,door,S4,conventional,request,1,Yes,1,21
142,571,50,0kqub3d84k,conventional,yes,0,Request,8,piano,S4,conventional,request,1,Yes,1,22
143,452,52,0kqub3d84k,conventional,yes,1,Non-Request,10,spanish,S4,conventional,literal,1,Yes,0,23
144,575,54,0kqub3d84k,conventional,yes,0,Request,12,temperature,S4,conventional,request,1,Yes,1,24
145,363,56,0kqub3d84k,conventional,yes,0,Non-Request,11,window,S5,conventional,request,0,No,1,25
146,397,58,0kqub3d84k,conventional,yes,0,Non-Request,10,spanish,S5,conventional,request,0,No,1,26
147,2892,60,0kqub3d84k,conventional,yes,0,Request,8,piano,S5,conventional,request,1,No,1,27
148,348,62,0kqub3d84k,conventional,yes,0,Non-Request,12,temperature,S5,conventional,request,0,No,1,28
149,172,64,0kqub3d84k,conventional,yes,0,Request,3,box,S5,conventional,request,1,No,1,29
150,279,66,0kqub3d84k,conventional,yes,0,Request,12,temperature,S5,conventional,request,1,Yes,1,30
151,356,68,0kqub3d84k,conventional,yes,0,Non-Request,4,door,S5,conventional,request,0,No,1,31
152,560,70,0kqub3d84k,conventional,yes,0,Request,11,window,S5,conventional,request,1,Yes,1,32
153,1093,72,0kqub3d84k,conventional,yes,0,Non-Request,3,box,S5,conventional,request,0,Yes,1,33
154,546,74,0kqub3d84k,conventional,yes,0,Non-Request,8,piano,S5,conventional,request,0,Yes,1,34
155,4501,76,0kqub3d84k,conventional,yes,0,Request,10,spanish,S5,conventional,request,1,Yes,1,35
156,331,78,0kqub3d84k,conventional,yes,0,Request,4,door,S5,conventional,request,1,Yes,1,36
157,353,80,0kqub3d84k,conventional,yes,0,Non-Request,12,temperature,S1,conventional,request,0,No,1,37
158,1199,82,0kqub3d84k,conventional,yes,1,Request,8,piano,S1,conventional,literal,0,No,0,38
159,673,84,0kqub3d84k,conventional,yes,1,Non-Request,8,piano,S1,conventional,literal,1,Yes,0,39
160,410,86,0kqub3d84k,conventional,yes,0,Request,11,window,S1,conventional,request,1,No,1,40
161,778,88,0kqub3d84k,conventional,yes,1,Non-Request,3,box,S1,conventional,literal,1,No,0,41
162,377,90,0kqub3d84k,conventional,yes,0,Request,3,box,S1,conventional,request,1,Yes,1,42
163,19356,92,0kqub3d84k,conventional,yes,0,Non-Request,10,spanish,S1,conventional,request,0,No,1,43
164,614,94,0kqub3d84k,conventional,yes,1,Non-Request,11,window,S1,conventional,literal,1,Yes,0,44
165,419,96,0kqub3d84k,conventional,yes,1,Non-Request,4,door,S1,conventional,literal,1,No,0,45
166,1189,98,0kqub3d84k,conventional,yes,0,Request,10,spanish,S1,conventional,request,1,Yes,1,46
167,329,100,0kqub3d84k,conventional,yes,0,Request,4,door,S1,conventional,request,1,Yes,1,47
168,360,102,0kqub3d84k,conventional,yes,0,Request,12,temperature,S1,conventional,request,1,Yes,1,48
169,589,104,0kqub3d84k,conventional,yes,0,Non-Request,12,temperature,S2,conventional,request,0,No,1,49
170,353,106,0kqub3d84k,conventional,yes,0,Request,10,spanish,S2,conventional,request,1,No,1,50
171,365,108,0kqub3d84k,conventional,yes,0,Non-Request,8,piano,S2,conventional,request,0,No,1,51
172,342,110,0kqub3d84k,conventional,yes,0,Non-Request,4,door,S2,conventional,request,0,No,1,52
173,1872,112,0kqub3d84k,conventional,yes,1,Non-Request,10,spanish,S2,conventional,literal,1,Yes,0,53
174,506,114,0kqub3d84k,conventional,yes,0,Request,8,piano,S2,conventional,request,1,Yes,1,54
175,498,116,0kqub3d84k,conventional,yes,0,Request,12,temperature,S2,conventional,request,1,Yes,1,55
176,361,118,0kqub3d84k,conventional,yes,0,Non-Request,11,window,S2,conventional,request,0,No,1,56
177,986,120,0kqub3d84k,conventional,yes,0,Request,3,box,S2,conventional,request,1,No,1,57
178,325,122,0kqub3d84k,conventional,yes,0,Request,11,window,S2,conventional,request,1,Yes,1,58
179,1068,124,0kqub3d84k,conventional,yes,1,Non-Request,3,box,S2,conventional,literal,1,Yes,0,59
180,1383,126,0kqub3d84k,conventional,yes,0,Request,4,door,S2,conventional,request,1,Yes,1,60
181,847,8,1cfe8c7hf0,conventional,yes,0,Request,10,spanish,S5,conventional,request,1,No,1,1
182,9467,10,1cfe8c7hf0,conventional,yes,0,Non-Request,8,piano,S5,conventional,request,0,No,1,2
183,1315,12,1cfe8c7hf0,conventional,yes,0,Non-Request,4,door,S5,conventional,request,0,No,1,3
184,635,14,1cfe8c7hf0,conventional,yes,0,Request,3,box,S5,conventional,request,1,No,1,4
185,747,16,1cfe8c7hf0,conventional,yes,0,Non-Request,10,spanish,S5,conventional,request,0,Yes,1,5
186,408,18,1cfe8c7hf0,conventional,yes,0,Non-Request,3,box,S5,conventional,request,0,Yes,1,6
187,378,20,1cfe8c7hf0,conventional,yes,0,Request,11,window,S5,conventional,request,1,No,1,7
188,1201,22,1cfe8c7hf0,conventional,yes,0,Non-Request,11,window,S5,conventional,request,0,Yes,1,8
189,487,24,1cfe8c7hf0,conventional,yes,0,Request,4,door,S5,conventional,request,1,Yes,1,9
190,1008,26,1cfe8c7hf0,conventional,yes,1,Request,8,piano,S5,conventional,literal,0,Yes,0,10
191,846,28,1cfe8c7hf0,conventional,yes,0,Request,12,temperature,S5,conventional,request,1,No,1,11
192,3149,30,1cfe8c7hf0,conventional,yes,1,Non-Request,12,temperature,S5,conventional,literal,1,Yes,0,12
193,1644,32,1cfe8c7hf0,conventional,yes,1,Request,4,door,S3,conventional,literal,0,No,0,13
194,819,34,1cfe8c7hf0,conventional,yes,1,Non-Request,12,temperature,S3,conventional,literal,1,No,0,14
195,821,36,1cfe8c7hf0,conventional,yes,0,Request,12,temperature,S3,conventional,request,1,Yes,1,15
196,807,38,1cfe8c7hf0,conventional,yes,1,Non-Request,3,box,S3,conventional,literal,1,No,0,16
197,467,40,1cfe8c7hf0,conventional,yes,0,Request,3,box,S3,conventional,request,1,Yes,1,17
198,6526,42,1cfe8c7hf0,conventional,yes,1,Non-Request,8,piano,S3,conventional,literal,1,No,0,18
199,1336,44,1cfe8c7hf0,conventional,yes,1,Request,8,piano,S3,conventional,literal,0,Yes,0,19
200,1060,46,1cfe8c7hf0,conventional,yes,1,Non-Request,4,door,S3,conventional,literal,1,Yes,0,20
201,1341,48,1cfe8c7hf0,conventional,yes,1,Non-Request,10,spanish,S3,conventional,literal,1,No,0,21
202,551,50,1cfe8c7hf0,conventional,yes,0,Request,10,spanish,S3,conventional,request,1,Yes,1,22
203,691,52,1cfe8c7hf0,conventional,yes,1,Non-Request,11,window,S3,conventional,literal,1,No,0,23
204,493,54,1cfe8c7hf0,conventional,yes,0,Request,11,window,S3,conventional,request,1,Yes,1,24
205,437,56,1cfe8c7hf0,conventional,yes,0,Request,4,door,S2,conventional,request,1,No,1,25
206,393,58,1cfe8c7hf0,conventional,yes,0,Non-Request,4,door,S2,conventional,request,0,Yes,1,26
207,1342,60,1cfe8c7hf0,conventional,yes,1,Request,3,box,S2,conventional,literal,0,No,0,27
208,452,62,1cfe8c7hf0,conventional,yes,0,Request,10,spanish,S2,conventional,request,1,No,1,28
209,1782,64,1cfe8c7hf0,conventional,yes,0,Request,12,temperature,S2,conventional,request,1,No,1,29
210,772,66,1cfe8c7hf0,conventional,yes,0,Non-Request,3,box,S2,conventional,request,0,Yes,1,30
211,311,68,1cfe8c7hf0,conventional,yes,0,Request,11,window,S2,conventional,request,1,No,1,31
212,594,70,1cfe8c7hf0,conventional,yes,0,Non-Request,10,spanish,S2,conventional,request,0,Yes,1,32
213,472,72,1cfe8c7hf0,conventional,yes,0,Request,8,piano,S2,conventional,request,1,No,1,33
214,559,74,1cfe8c7hf0,conventional,yes,1,Non-Request,12,temperature,S2,conventional,literal,1,Yes,0,34
215,771,76,1cfe8c7hf0,conventional,yes,1,Non-Request,8,piano,S2,conventional,literal,1,Yes,0,35
216,650,78,1cfe8c7hf0,conventional,yes,0,Non-Request,11,window,S2,conventional,request,0,Yes,1,36
217,440,80,1cfe8c7hf0,conventional,yes,0,Request,12,temperature,S1,conventional,request,1,No,1,37
218,434,82,1cfe8c7hf0,conventional,yes,0,Request,10,spanish,S1,conventional,request,1,No,1,38
219,1060,84,1cfe8c7hf0,conventional,yes,1,Request,3,box,S1,conventional,literal,0,No,0,39
220,800,86,1cfe8c7hf0,conventional,yes,0,Non-Request,10,spanish,S1,conventional,request,0,Yes,1,40
221,456,88,1cfe8c7hf0,conventional,yes,0,Request,11,window,S1,conventional,request,1,No,1,41
222,403,90,1cfe8c7hf0,conventional,yes,0,Non-Request,3,box,S1,conventional,request,0,Yes,1,42
223,909,92,1cfe8c7hf0,conventional,yes,1,Non-Request,4,door,S1,conventional,literal,1,No,0,43
224,438,94,1cfe8c7hf0,conventional,yes,1,Non-Request,8,piano,S1,conventional,literal,1,No,0,44
225,600,96,1cfe8c7hf0,conventional,yes,0,Request,8,piano,S1,conventional,request,1,Yes,1,45
226,603,98,1cfe8c7hf0,conventional,yes,0,Non-Request,11,window,S1,conventional,request,0,Yes,1,46
227,501,100,1cfe8c7hf0,conventional,yes,0,Request,4,door,S1,conventional,request,1,Yes,1,47
228,674,102,1cfe8c7hf0,conventional,yes,1,Non-Request,12,temperature,S1,conventional,literal,1,Yes,0,48
229,355,104,1cfe8c7hf0,conventional,yes,0,Request,10,spanish,S4,conventional,request,1,No,1,49
230,427,106,1cfe8c7hf0,conventional,yes,1,Non-Request,12,temperature,S4,conventional,literal,1,No,0,50
231,394,108,1cfe8c7hf0,conventional,yes,1,Non-Request,8,piano,S4,conventional,literal,1,No,0,51
232,407,110,1cfe8c7hf0,conventional,yes,0,Non-Request,11,window,S4,conventional,request,0,No,1,52
233,406,112,1cfe8c7hf0,conventional,yes,0,Request,12,temperature,S4,conventional,request,1,Yes,1,53
234,588,114,1cfe8c7hf0,conventional,yes,1,Request,8,piano,S4,conventional,literal,0,Yes,0,54
235,6439,116,1cfe8c7hf0,conventional,yes,0,Non-Request,4,door,S4,conventional,request,0,No,1,55
236,631,118,1cfe8c7hf0,conventional,yes,1,Request,4,door,S4,conventional,literal,0,Yes,0,56
237,345,120,1cfe8c7hf0,conventional,yes,0,Request,3,box,S4,conventional,request,1,No,1,57
238,796,122,1cfe8c7hf0,conventional,yes,0,Request,11,window,S4,conventional,request,1,Yes,1,58
239,582,124,1cfe8c7hf0,conventional,yes,1,Non-Request,3,box,S4,conventional,literal,1,Yes,0,59
240,341,126,1cfe8c7hf0,conventional,yes,0,Non-Request,10,spanish,S4,conventional,request,0,Yes,1,60
241,1952,8,1z2jbr7rtu,conventional,yes,1,Non-Request,8,piano,S3,conventional,literal,1,No,0,1
242,1880,10,1z2jbr7rtu,conventional,yes,0,Non-Request,11,window,S3,conventional,request,0,No,1,2
243,825,12,1z2jbr7rtu,conventional,yes,0,Request,11,window,S3,conventional,request,1,Yes,1,3
244,1494,14,1z2jbr7rtu,conventional,yes,1,Non-Request,10,spanish,S3,conventional,literal,1,No,0,4
245,3259,16,1z2jbr7rtu,conventional,yes,0,Request,8,piano,S3,conventional,request,1,Yes,1,5
246,1166,18,1z2jbr7rtu,conventional,yes,0,Non-Request,4,door,S3,conventional,request,0,No,1,6
247,2208,20,1z2jbr7rtu,conventional,yes,0,Request,10,spanish,S3,conventional,request,1,Yes,1,7
248,3589,22,1z2jbr7rtu,conventional,yes,1,Non-Request,3,box,S3,conventional,literal,1,No,0,8
249,847,24,1z2jbr7rtu,conventional,yes,0,Request,12,temperature,S3,conventional,request,1,No,1,9
250,2287,26,1z2jbr7rtu,conventional,yes,0,Request,3,box,S3,conventional,request,1,Yes,1,10
251,3679,28,1z2jbr7rtu,conventional,yes,1,Non-Request,12,temperature,S3,conventional,literal,1,Yes,0,11
252,1305,30,1z2jbr7rtu,conventional,yes,0,Request,4,door,S3,conventional,request,1,Yes,1,12
253,1376,32,1z2jbr7rtu,conventional,yes,0,Non-Request,3,box,S1,conventional,request,0,No,1,13
254,542,34,1z2jbr7rtu,conventional,yes,0,Request,3,box,S1,conventional,request,1,Yes,1,14
255,595,36,1z2jbr7rtu,conventional,yes,0,Non-Request,12,temperature,S1,conventional,request,0,No,1,15
256,555,38,1z2jbr7rtu,conventional,yes,0,Request,11,window,S1,conventional,request,1,No,1,16
257,1027,40,1z2jbr7rtu,conventional,yes,1,Non-Request,11,window,S1,conventional,literal,1,Yes,0,17
258,1309,42,1z2jbr7rtu,conventional,yes,1,Non-Request,8,piano,S1,conventional,literal,1,No,0,18
259,839,44,1z2jbr7rtu,conventional,yes,0,Request,12,temperature,S1,conventional,request,1,Yes,1,19
260,3448,46,1z2jbr7rtu,conventional,yes,0,Request,10,spanish,S1,conventional,request,1,No,1,20
261,826,48,1z2jbr7rtu,conventional,yes,0,Non-Request,10,spanish,S1,conventional,request,0,Yes,1,21
262,2360,50,1z2jbr7rtu,conventional,yes,0,Request,8,piano,S1,conventional,request,1,Yes,1,22
263,771,52,1z2jbr7rtu,conventional,yes,0,Request,4,door,S1,conventional,request,1,No,1,23
264,1644,54,1z2jbr7rtu,conventional,yes,1,Non-Request,4,door,S1,conventional,literal,1,Yes,0,24
265,1903,56,1z2jbr7rtu,conventional,yes,0,Non-Request,3,box,S5,conventional,request,0,No,1,25
266,1173,58,1z2jbr7rtu,conventional,yes,0,Request,3,box,S5,conventional,request,1,Yes,1,26
267,665,60,1z2jbr7rtu,conventional,yes,0,Non-Request,8,piano,S5,conventional,request,0,No,1,27
268,583,62,1z2jbr7rtu,conventional,yes,0,Request,11,window,S5,conventional,request,1,No,1,28
269,2482,64,1z2jbr7rtu,conventional,yes,0,Non-Request,10,spanish,S5,conventional,request,0,No,1,29
270,759,66,1z2jbr7rtu,conventional,yes,0,Non-Request,11,window,S5,conventional,request,0,Yes,1,30
271,595,68,1z2jbr7rtu,conventional,yes,0,Request,12,temperature,S5,conventional,request,1,No,1,31
272,735,70,1z2jbr7rtu,conventional,yes,0,Request,4,door,S5,conventional,request,1,No,1,32
273,862,72,1z2jbr7rtu,conventional,yes,0,Non-Request,12,temperature,S5,conventional,request,0,Yes,1,33
274,2219,74,1z2jbr7rtu,conventional,yes,0,Request,8,piano,S5,conventional,request,1,Yes,1,34
275,697,76,1z2jbr7rtu,conventional,yes,0,Non-Request,4,door,S5,conventional,request,0,Yes,1,35
276,2424,78,1z2jbr7rtu,conventional,yes,0,Request,10,spanish,S5,conventional,request,1,Yes,1,36
277,3426,80,1z2jbr7rtu,conventional,yes,1,Non-Request,4,door,S2,conventional,literal,1,No,0,37
278,718,82,1z2jbr7rtu,conventional,yes,0,Request,10,spanish,S2,conventional,request,1,No,1,38
279,1388,84,1z2jbr7rtu,conventional,yes,1,Request,8,piano,S2,conventional,literal,0,No,0,39
280,3261,86,1z2jbr7rtu,conventional,yes,1,Request,4,door,S2,conventional,literal,0,Yes,0,40
281,3206,88,1z2jbr7rtu,conventional,yes,1,Non-Request,3,box,S2,conventional,literal,1,No,0,41
282,774,90,1z2jbr7rtu,conventional,yes,1,Non-Request,12,temperature,S2,conventional,literal,1,No,0,42
283,567,92,1z2jbr7rtu,conventional,yes,1,Non-Request,10,spanish,S2,conventional,literal,1,Yes,0,43
284,6275,94,1z2jbr7rtu,conventional,yes,1,Non-Request,11,window,S2,conventional,literal,1,No,0,44
285,950,96,1z2jbr7rtu,conventional,yes,1,Request,12,temperature,S2,conventional,literal,0,Yes,0,45
286,727,98,1z2jbr7rtu,conventional,yes,1,Non-Request,8,piano,S2,conventional,literal,1,Yes,0,46
287,518,100,1z2jbr7rtu,conventional,yes,1,Request,11,window,S2,conventional,literal,0,Yes,0,47
288,961,102,1z2jbr7rtu,conventional,yes,1,Request,3,box,S2,conventional,literal,0,Yes,0,48
289,2596,104,1z2jbr7rtu,conventional,yes,0,Request,10,spanish,S4,conventional,request,1,No,1,49
290,4316,106,1z2jbr7rtu,conventional,yes,0,Non-Request,4,door,S4,conventional,request,0,No,1,50
291,1520,108,1z2jbr7rtu,conventional,yes,0,Request,4,door,S4,conventional,request,1,Yes,1,51
292,1627,110,1z2jbr7rtu,conventional,yes,1,Non-Request,8,piano,S4,conventional,literal,1,No,0,52
293,1302,112,1z2jbr7rtu,conventional,yes,0,Request,8,piano,S4,conventional,request,1,Yes,1,53
294,1989,114,1z2jbr7rtu,conventional,yes,0,Request,11,window,S4,conventional,request,1,No,1,54
295,2620,116,1z2jbr7rtu,conventional,yes,0,Non-Request,12,temperature,S4,conventional,request,0,No,1,55
296,1268,118,1z2jbr7rtu,conventional,yes,0,Request,12,temperature,S4,conventional,request,1,Yes,1,56
297,290,120,1z2jbr7rtu,conventional,yes,0,Non-Request,11,window,S4,conventional,request,0,Yes,1,57
298,1626,122,1z2jbr7rtu,conventional,yes,0,Request,3,box,S4,conventional,request,1,No,1,58
299,1285,124,1z2jbr7rtu,conventional,yes,0,Non-Request,10,spanish,S4,conventional,request,0,Yes,1,59
300,4275,126,1z2jbr7rtu,conventional,yes,1,Non-Request,3,box,S4,conventional,literal,1,Yes,0,60
301,3624,8,20lj4j7yaf,non_conventional,yes,1,Non-Request,6,office,S5,nonconventional,literal,1,No,0,1
302,526,10,20lj4j7yaf,non_conventional,yes,1,Request,9,soup,S5,nonconventional,literal,0,No,0,2
303,950,12,20lj4j7yaf,non_conventional,yes,1,Non-Request,2,back,S5,nonconventional,literal,1,No,0,3
304,935,14,20lj4j7yaf,non_conventional,yes,0,Non-Request,9,soup,S5,nonconventional,request,0,Yes,1,4
305,1138,16,20lj4j7yaf,non_conventional,yes,0,Non-Request,7,phone,S5,nonconventional,request,0,No,1,5
306,541,18,20lj4j7yaf,non_conventional,yes,1,Non-Request,1,car,S5,nonconventional,literal,1,No,0,6
307,449,20,20lj4j7yaf,non_conventional,yes,1,Request,6,office,S5,nonconventional,literal,0,Yes,0,7
308,341,22,20lj4j7yaf,non_conventional,yes,1,Request,5,laptop,S5,nonconventional,literal,0,No,0,8
309,416,24,20lj4j7yaf,non_conventional,yes,0,Request,1,car,S5,nonconventional,request,1,Yes,1,9
310,393,26,20lj4j7yaf,non_conventional,yes,0,Request,7,phone,S5,nonconventional,request,1,Yes,1,10
311,697,28,20lj4j7yaf,non_conventional,yes,1,Request,2,back,S5,nonconventional,literal,0,Yes,0,11
312,666,30,20lj4j7yaf,non_conventional,yes,1,Non-Request,5,laptop,S5,nonconventional,literal,1,Yes,0,12
313,4644,32,20lj4j7yaf,non_conventional,yes,1,Non-Request,7,phone,S2,nonconventional,literal,1,No,0,13
314,383,34,20lj4j7yaf,non_conventional,yes,1,Non-Request,6,office,S2,nonconventional,literal,1,No,0,14
315,346,36,20lj4j7yaf,non_conventional,yes,1,Request,5,laptop,S2,nonconventional,literal,0,No,0,15
316,377,38,20lj4j7yaf,non_conventional,yes,1,Request,6,office,S2,nonconventional,literal,0,Yes,0,16
317,328,40,20lj4j7yaf,non_conventional,yes,1,Non-Request,1,car,S2,nonconventional,literal,1,No,0,17
318,354,42,20lj4j7yaf,non_conventional,yes,1,Non-Request,5,laptop,S2,nonconventional,literal,1,Yes,0,18
319,345,44,20lj4j7yaf,non_conventional,yes,1,Request,2,back,S2,nonconventional,literal,0,No,0,19
320,635,46,20lj4j7yaf,non_conventional,yes,1,Request,9,soup,S2,nonconventional,literal,0,No,0,20
321,376,48,20lj4j7yaf,non_conventional,yes,1,Non-Request,2,back,S2,nonconventional,literal,1,Yes,0,21
322,330,50,20lj4j7yaf,non_conventional,yes,1,Request,1,car,S2,nonconventional,literal,0,Yes,0,22
323,337,52,20lj4j7yaf,non_conventional,yes,1,Request,7,phone,S2,nonconventional,literal,0,Yes,0,23
324,651,54,20lj4j7yaf,non_conventional,yes,1,Non-Request,9,soup,S2,nonconventional,literal,1,Yes,0,24
325,412,56,20lj4j7yaf,non_conventional,yes,1,Non-Request,5,laptop,S3,nonconventional,literal,1,No,0,25
326,944,58,20lj4j7yaf,non_conventional,yes,0,Non-Request,9,soup,S3,nonconventional,request,0,No,1,26
327,477,60,20lj4j7yaf,non_conventional,yes,1,Request,2,back,S3,nonconventional,literal,0,No,0,27
328,386,62,20lj4j7yaf,non_conventional,yes,0,Request,9,soup,S3,nonconventional,request,1,Yes,1,28
329,373,64,20lj4j7yaf,non_conventional,yes,1,Non-Request,2,back,S3,nonconventional,literal,1,Yes,0,29
330,421,66,20lj4j7yaf,non_conventional,yes,1,Request,7,phone,S3,nonconventional,literal,0,No,0,30
331,409,68,20lj4j7yaf,non_conventional,yes,1,Request,6,office,S3,nonconventional,literal,0,No,0,31
332,639,70,20lj4j7yaf,non_conventional,yes,1,Non-Request,7,phone,S3,nonconventional,literal,1,Yes,0,32
333,527,72,20lj4j7yaf,non_conventional,yes,0,Request,5,laptop,S3,nonconventional,request,1,Yes,1,33
334,376,74,20lj4j7yaf,non_conventional,yes,0,Non-Request,1,car,S3,nonconventional,request,0,No,1,34
335,453,76,20lj4j7yaf,non_conventional,yes,0,Request,1,car,S3,nonconventional,request,1,Yes,1,35
336,374,78,20lj4j7yaf,non_conventional,yes,1,Non-Request,6,office,S3,nonconventional,literal,1,Yes,0,36
337,326,80,20lj4j7yaf,non_conventional,yes,1,Non-Request,1,car,S4,nonconventional,literal,1,No,0,37
338,400,82,20lj4j7yaf,non_conventional,yes,1,Request,6,office,S4,nonconventional,literal,0,No,0,38
339,549,84,20lj4j7yaf,non_conventional,yes,1,Request,2,back,S4,nonconventional,literal,0,No,0,39
340,353,86,20lj4j7yaf,non_conventional,yes,1,Non-Request,9,soup,S4,nonconventional,literal,1,No,0,40
341,502,88,20lj4j7yaf,non_conventional,yes,1,Request,1,car,S4,nonconventional,literal,0,Yes,0,41
342,336,90,20lj4j7yaf,non_conventional,yes,1,Request,7,phone,S4,nonconventional,literal,0,No,0,42
343,412,92,20lj4j7yaf,non_conventional,yes,0,Request,9,soup,S4,nonconventional,request,1,Yes,1,43
344,354,94,20lj4j7yaf,non_conventional,yes,1,Non-Request,6,office,S4,nonconventional,literal,1,Yes,0,44
345,294,96,20lj4j7yaf,non_conventional,yes,1,Non-Request,2,back,S4,nonconventional,literal,1,Yes,0,45
346,303,98,20lj4j7yaf,non_conventional,yes,1,Non-Request,7,phone,S4,nonconventional,literal,1,Yes,0,46
347,318,100,20lj4j7yaf,non_conventional,yes,0,Request,5,laptop,S4,nonconventional,request,1,No,1,47
348,322,102,20lj4j7yaf,non_conventional,yes,1,Non-Request,5,laptop,S4,nonconventional,literal,1,Yes,0,48
349,712,104,20lj4j7yaf,non_conventional,yes,0,Request,7,phone,S1,nonconventional,request,1,No,1,49
350,406,106,20lj4j7yaf,non_conventional,yes,0,Request,5,laptop,S1,nonconventional,request,1,No,1,50
351,364,108,20lj4j7yaf,non_conventional,yes,0,Request,1,car,S1,nonconventional,request,1,No,1,51
352,346,110,20lj4j7yaf,non_conventional,yes,0,Request,9,soup,S1,nonconventional,request,1,No,1,52
353,321,112,20lj4j7yaf,non_conventional,yes,1,Non-Request,7,phone,S1,nonconventional,literal,1,Yes,0,53
354,332,114,20lj4j7yaf,non_conventional,yes,1,Non-Request,2,back,S1,nonconventional,literal,1,No,0,54
355,1308,116,20lj4j7yaf,non_conventional,yes,1,Non-Request,9,soup,S1,nonconventional,literal,1,Yes,0,55
356,829,118,20lj4j7yaf,non_conventional,yes,0,Non-Request,5,laptop,S1,nonconventional,request,0,Yes,1,56
357,6104,120,20lj4j7yaf,non_conventional,yes,1,Non-Request,1,car,S1,nonconventional,literal,1,Yes,0,57
358,329,122,20lj4j7yaf,non_conventional,yes,1,Request,2,back,S1,nonconventional,literal,0,Yes,0,58
359,389,124,20lj4j7yaf,non_conventional,yes,1,Non-Request,6,office,S1,nonconventional,literal,1,No,0,59
360,441,126,20lj4j7yaf,non_conventional,yes,0,Request,6,office,S1,nonconventional,request,1,Yes,1,60
361,822,8,21ebklj0nw,conventional,yes,0,Non-Request,12,temperature,S1,conventional,request,0,No,1,1
362,3402,10,21ebklj0nw,conventional,yes,0,Request,8,piano,S1,conventional,request,1,No,1,2
363,1921,12,21ebklj0nw,conventional,yes,0,Non-Request,3,box,S1,conventional,request,0,No,1,3
364,571,14,21ebklj0nw,conventional,yes,0,Request,11,window,S1,conventional,request,1,No,1,4
365,1522,16,21ebklj0nw,conventional,yes,0,Non-Request,8,piano,S1,conventional,request,0,Yes,1,5
366,831,18,21ebklj0nw,conventional,yes,0,Request,4,door,S1,conventional,request,1,No,1,6
367,719,20,21ebklj0nw,conventional,yes,1,Non-Request,11,window,S1,conventional,literal,1,Yes,0,7
368,647,22,21ebklj0nw,conventional,yes,0,Non-Request,10,spanish,S1,conventional,request,0,No,1,8
369,1081,24,21ebklj0nw,conventional,yes,0,Request,12,temperature,S1,conventional,request,1,Yes,1,9
370,1048,26,21ebklj0nw,conventional,yes,0,Request,3,box,S1,conventional,request,1,Yes,1,10
371,709,28,21ebklj0nw,conventional,yes,1,Non-Request,4,door,S1,conventional,literal,1,Yes,0,11
372,604,30,21ebklj0nw,conventional,yes,0,Request,10,spanish,S1,conventional,request,1,Yes,1,12
373,1584,32,21ebklj0nw,conventional,yes,0,Request,10,spanish,S3,conventional,request,1,No,1,13
374,911,34,21ebklj0nw,conventional,yes,1,Request,8,piano,S3,conventional,literal,0,No,0,14
375,751,36,21ebklj0nw,conventional,yes,0,Request,3,box,S3,conventional,request,1,No,1,15
376,1201,38,21ebklj0nw,conventional,yes,1,Non-Request,11,window,S3,conventional,literal,1,No,0,16
377,405,40,21ebklj0nw,conventional,yes,1,Non-Request,3,box,S3,conventional,literal,1,Yes,0,17
378,555,42,21ebklj0nw,conventional,yes,0,Request,4,door,S3,conventional,request,1,No,1,18
379,378,44,21ebklj0nw,conventional,yes,0,Request,11,window,S3,conventional,request,1,Yes,1,19
380,451,46,21ebklj0nw,conventional,yes,1,Non-Request,12,temperature,S3,conventional,literal,1,No,0,20
381,348,48,21ebklj0nw,conventional,yes,1,Non-Request,4,door,S3,conventional,literal,1,Yes,0,21
382,597,50,21ebklj0nw,conventional,yes,0,Non-Request,8,piano,S3,conventional,request,0,Yes,1,22
383,384,52,21ebklj0nw,conventional,yes,1,Non-Request,10,spanish,S3,conventional,literal,1,Yes,0,23
384,384,54,21ebklj0nw,conventional,yes,0,Request,12,temperature,S3,conventional,request,1,Yes,1,24
385,1082,56,21ebklj0nw,conventional,yes,0,Request,12,temperature,S4,conventional,request,1,No,1,25
386,345,58,21ebklj0nw,conventional,yes,0,Non-Request,10,spanish,S4,conventional,request,0,No,1,26
387,628,60,21ebklj0nw,conventional,yes,1,Non-Request,8,piano,S4,conventional,literal,1,No,0,27
388,527,62,21ebklj0nw,conventional,yes,0,Request,4,door,S4,conventional,request,1,No,1,28
389,398,64,21ebklj0nw,conventional,yes,0,Non-Request,3,box,S4,conventional,request,0,No,1,29
390,364,66,21ebklj0nw,conventional,yes,1,Request,10,spanish,S4,conventional,literal,0,Yes,0,30
391,987,68,21ebklj0nw,conventional,yes,1,Request,8,piano,S4,conventional,literal,0,Yes,0,31
392,626,70,21ebklj0nw,conventional,yes,0,Non-Request,4,door,S4,conventional,request,0,Yes,1,32
393,828,72,21ebklj0nw,conventional,yes,0,Request,11,window,S4,conventional,request,1,No,1,33
394,744,74,21ebklj0nw,conventional,yes,0,Non-Request,12,temperature,S4,conventional,request,0,Yes,1,34
395,473,76,21ebklj0nw,conventional,yes,0,Request,3,box,S4,conventional,request,1,Yes,1,35
396,290,78,21ebklj0nw,conventional,yes,0,Non-Request,11,window,S4,conventional,request,0,Yes,1,36
397,378,80,21ebklj0nw,conventional,yes,0,Request,12,temperature,S5,conventional,request,1,No,1,37
398,440,82,21ebklj0nw,conventional,yes,0,Request,4,door,S5,conventional,request,1,No,1,38
399,364,84,21ebklj0nw,conventional,yes,0,Request,11,window,S5,conventional,request,1,No,1,39
400,494,86,21ebklj0nw,conventional,yes,0,Non-Request,12,temperature,S5,conventional,request,0,Yes,1,40
401,401,88,21ebklj0nw,conventional,yes,0,Request,3,box,S5,conventional,request,1,No,1,41
402,446,90,21ebklj0nw,conventional,yes,0,Non-Request,10,spanish,S5,conventional,request,0,No,1,42
403,717,92,21ebklj0nw,conventional,yes,0,Non-Request,8,piano,S5,conventional,request,0,No,1,43
404,309,94,21ebklj0nw,conventional,yes,0,Request,8,piano,S5,conventional,request,1,Yes,1,44
405,876,96,21ebklj0nw,conventional,yes,0,Non-Request,3,box,S5,conventional,request,0,Yes,1,45
406,921,98,21ebklj0nw,conventional,yes,1,Request,10,spanish,S5,conventional,literal,0,Yes,0,46
407,635,100,21ebklj0nw,conventional,yes,0,Non-Request,11,window,S5,conventional,request,0,Yes,1,47
408,453,102,21ebklj0nw,conventional,yes,0,Non-Request,4,door,S5,conventional,request,0,Yes,1,48
409,363,104,21ebklj0nw,conventional,yes,0,Request,3,box,S2,conventional,request,1,No,1,49
410,357,106,21ebklj0nw,conventional,yes,0,Non-Request,4,door,S2,conventional,request,0,No,1,50
411,276,108,21ebklj0nw,conventional,yes,0,Request,12,temperature,S2,conventional,request,1,No,1,51
412,745,110,21ebklj0nw,conventional,yes,1,Non-Request,12,temperature,S2,conventional,literal,1,Yes,0,52
413,1107,112,21ebklj0nw,conventional,yes,1,Request,10,spanish,S2,conventional,literal,0,No,0,53
414,345,114,21ebklj0nw,conventional,yes,0,Request,8,piano,S2,conventional,request,1,No,1,54
415,420,116,21ebklj0nw,conventional,yes,0,Non-Request,11,window,S2,conventional,request,0,No,1,55
416,440,118,21ebklj0nw,conventional,yes,0,Non-Request,3,box,S2,conventional,request,0,Yes,1,56
417,375,120,21ebklj0nw,conventional,yes,0,Request,11,window,S2,conventional,request,1,Yes,1,57
418,372,122,21ebklj0nw,conventional,yes,0,Request,4,door,S2,conventional,request,1,Yes,1,58
419,1051,124,21ebklj0nw,conventional,yes,1,Non-Request,8,piano,S2,conventional,literal,1,Yes,0,59
420,385,126,21ebklj0nw,conventional,yes,1,Non-Request,10,spanish,S2,conventional,literal,1,Yes,0,60
421,3092,8,2lyoy6buvq,non_conventional,yes,1,Non-Request,2,back,S5,nonconventional,literal,1,No,0,1
422,1434,10,2lyoy6buvq,non_conventional,yes,1,Request,9,soup,S5,nonconventional,literal,0,No,0,2
423,2556,12,2lyoy6buvq,non_conventional,yes,1,Request,5,laptop,S5,nonconventional,literal,0,No,0,3
424,1451,14,2lyoy6buvq,non_conventional,yes,1,Non-Request,9,soup,S5,nonconventional,literal,1,Yes,0,4
425,3705,16,2lyoy6buvq,non_conventional,yes,0,Non-Request,7,phone,S5,nonconventional,request,0,No,1,5
426,2985,18,2lyoy6buvq,non_conventional,yes,1,Request,6,office,S5,nonconventional,literal,0,No,0,6
427,1997,20,2lyoy6buvq,non_conventional,yes,1,Non-Request,1,car,S5,nonconventional,literal,1,No,0,7
428,936,22,2lyoy6buvq,non_conventional,yes,1,Request,7,phone,S5,nonconventional,literal,0,Yes,0,8
429,1465,24,2lyoy6buvq,non_conventional,yes,1,Request,1,car,S5,nonconventional,literal,0,Yes,0,9
430,807,26,2lyoy6buvq,non_conventional,yes,1,Request,2,back,S5,nonconventional,literal,0,Yes,0,10
431,631,28,2lyoy6buvq,non_conventional,yes,1,Non-Request,6,office,S5,nonconventional,literal,1,Yes,0,11
432,1876,30,2lyoy6buvq,non_conventional,yes,1,Non-Request,5,laptop,S5,nonconventional,literal,1,Yes,0,12
433,1603,32,2lyoy6buvq,non_conventional,yes,1,Non-Request,7,phone,S4,nonconventional,literal,1,No,0,13
434,676,34,2lyoy6buvq,non_conventional,yes,1,Request,9,soup,S4,nonconventional,literal,0,No,0,14
435,1344,36,2lyoy6buvq,non_conventional,yes,1,Non-Request,2,back,S4,nonconventional,literal,1,No,0,15
436,1355,38,2lyoy6buvq,non_conventional,yes,1,Non-Request,9,soup,S4,nonconventional,literal,1,Yes,0,16
437,2995,40,2lyoy6buvq,non_conventional,yes,1,Non-Request,6,office,S4,nonconventional,literal,1,No,0,17
438,633,42,2lyoy6buvq,non_conventional,yes,1,Request,2,back,S4,nonconventional,literal,0,Yes,0,18
439,804,44,2lyoy6buvq,non_conventional,yes,1,Request,1,car,S4,nonconventional,literal,0,No,0,19
440,2554,46,2lyoy6buvq,non_conventional,yes,1,Request,5,laptop,S4,nonconventional,literal,0,No,0,20
441,684,48,2lyoy6buvq,non_conventional,yes,1,Request,6,office,S4,nonconventional,literal,0,Yes,0,21
442,1072,50,2lyoy6buvq,non_conventional,yes,1,Non-Request,1,car,S4,nonconventional,literal,1,Yes,0,22
443,604,52,2lyoy6buvq,non_conventional,yes,1,Non-Request,5,laptop,S4,nonconventional,literal,1,Yes,0,23
444,581,54,2lyoy6buvq,non_conventional,yes,1,Request,7,phone,S4,nonconventional,literal,0,Yes,0,24
445,4071,56,2lyoy6buvq,non_conventional,yes,1,Non-Request,9,soup,S1,nonconventional,literal,1,No,0,25
446,2997,58,2lyoy6buvq,non_conventional,yes,0,Non-Request,6,office,S1,nonconventional,request,0,No,1,26
447,727,60,2lyoy6buvq,non_conventional,yes,0,Request,7,phone,S1,nonconventional,request,1,No,1,27
448,1710,62,2lyoy6buvq,non_conventional,yes,0,Request,5,laptop,S1,nonconventional,request,1,No,1,28
449,618,64,2lyoy6buvq,non_conventional,yes,0,Request,2,back,S1,nonconventional,request,1,No,1,29
450,1485,66,2lyoy6buvq,non_conventional,yes,0,Non-Request,5,laptop,S1,nonconventional,request,0,Yes,1,30
451,883,68,2lyoy6buvq,non_conventional,yes,0,Request,9,soup,S1,nonconventional,request,1,Yes,1,31
452,781,70,2lyoy6buvq,non_conventional,yes,0,Request,1,car,S1,nonconventional,request,1,No,1,32
453,597,72,2lyoy6buvq,non_conventional,yes,0,Request,6,office,S1,nonconventional,request,1,Yes,1,33
454,1021,74,2lyoy6buvq,non_conventional,yes,0,Non-Request,2,back,S1,nonconventional,request,0,Yes,1,34
455,1934,76,2lyoy6buvq,non_conventional,yes,0,Non-Request,7,phone,S1,nonconventional,request,0,Yes,1,35
456,705,78,2lyoy6buvq,non_conventional,yes,0,Non-Request,1,car,S1,nonconventional,request,0,Yes,1,36
457,2083,80,2lyoy6buvq,non_conventional,yes,0,Request,6,office,S3,nonconventional,request,1,No,1,37
458,574,82,2lyoy6buvq,non_conventional,yes,0,Non-Request,1,car,S3,nonconventional,request,0,No,1,38
459,828,84,2lyoy6buvq,non_conventional,yes,0,Non-Request,2,back,S3,nonconventional,request,0,No,1,39
460,532,86,2lyoy6buvq,non_conventional,yes,0,Non-Request,7,phone,S3,nonconventional,request,0,No,1,40
461,561,88,2lyoy6buvq,non_conventional,yes,0,Request,5,laptop,S3,nonconventional,request,1,No,1,41
462,499,90,2lyoy6buvq,non_conventional,yes,0,Request,7,phone,S3,nonconventional,request,1,Yes,1,42
463,706,92,2lyoy6buvq,non_conventional,yes,0,Request,1,car,S3,nonconventional,request,1,Yes,1,43
464,513,94,2lyoy6buvq,non_conventional,yes,0,Non-Request,9,soup,S3,nonconventional,request,0,No,1,44
465,698,96,2lyoy6buvq,non_conventional,yes,0,Request,2,back,S3,nonconventional,request,1,Yes,1,45
466,514,98,2lyoy6buvq,non_conventional,yes,0,Non-Request,6,office,S3,nonconventional,request,0,Yes,1,46
467,518,100,2lyoy6buvq,non_conventional,yes,0,Request,9,soup,S3,nonconventional,request,1,Yes,1,47
468,769,102,2lyoy6buvq,non_conventional,yes,1,Non-Request,5,laptop,S3,nonconventional,literal,1,Yes,0,48
469,706,104,2lyoy6buvq,non_conventional,yes,1,Request,9,soup,S2,nonconventional,literal,0,No,0,49
470,512,106,2lyoy6buvq,non_conventional,yes,1,Request,7,phone,S2,nonconventional,literal,0,No,0,50
471,470,108,2lyoy6buvq,non_conventional,yes,1,Non-Request,1,car,S2,nonconventional,literal,1,No,0,51
472,472,110,2lyoy6buvq,non_conventional,yes,1,Non-Request,2,back,S2,nonconventional,literal,1,No,0,52
473,441,112,2lyoy6buvq,non_conventional,yes,1,Non-Request,6,office,S2,nonconventional,literal,1,No,0,53
474,455,114,2lyoy6buvq,non_conventional,yes,1,Request,1,car,S2,nonconventional,literal,0,Yes,0,54
475,552,116,2lyoy6buvq,non_conventional,yes,1,Non-Request,9,soup,S2,nonconventional,literal,1,Yes,0,55
476,438,118,2lyoy6buvq,non_conventional,yes,1,Request,5,laptop,S2,nonconventional,literal,0,No,0,56
477,482,120,2lyoy6buvq,non_conventional,yes,1,Request,6,office,S2,nonconventional,literal,0,Yes,0,57
478,461,122,2lyoy6buvq,non_conventional,yes,1,Non-Request,7,phone,S2,nonconventional,literal,1,Yes,0,58
479,467,124,2lyoy6buvq,non_conventional,yes,1,Request,2,back,S2,nonconventional,literal,0,Yes,0,59
480,473,126,2lyoy6buvq,non_conventional,yes,1,Non-Request,5,laptop,S2,nonconventional,literal,1,Yes,0,60
481,6347,8,2rudkxwms6,conventional,yes,0,Request,10,spanish,S2,conventional,request,1,No,1,1
482,493,10,2rudkxwms6,conventional,yes,0,Request,11,window,S2,conventional,request,1,No,1,2
483,545,12,2rudkxwms6,conventional,yes,0,Request,12,temperature,S2,conventional,request,1,No,1,3
484,1419,14,2rudkxwms6,conventional,yes,0,Request,4,door,S2,conventional,request,1,No,1,4
485,1965,16,2rudkxwms6,conventional,yes,1,Non-Request,3,box,S2,conventional,literal,1,No,0,5
486,1289,18,2rudkxwms6,conventional,yes,1,Non-Request,11,window,S2,conventional,literal,1,Yes,0,6
487,1864,20,2rudkxwms6,conventional,yes,1,Request,8,piano,S2,conventional,literal,0,No,0,7
488,757,22,2rudkxwms6,conventional,yes,0,Request,3,box,S2,conventional,request,1,Yes,1,8
489,2624,24,2rudkxwms6,conventional,yes,1,Non-Request,8,piano,S2,conventional,literal,1,Yes,0,9
490,817,26,2rudkxwms6,conventional,yes,0,Non-Request,4,door,S2,conventional,request,0,Yes,1,10
491,619,28,2rudkxwms6,conventional,yes,0,Non-Request,12,temperature,S2,conventional,request,0,Yes,1,11
492,1663,30,2rudkxwms6,conventional,yes,1,Non-Request,10,spanish,S2,conventional,literal,1,Yes,0,12
493,3799,32,2rudkxwms6,conventional,yes,0,Request,3,box,S5,conventional,request,1,No,1,13
494,374,34,2rudkxwms6,conventional,yes,0,Request,4,door,S5,conventional,request,1,No,1,14
495,398,36,2rudkxwms6,conventional,yes,0,Request,11,window,S5,conventional,request,1,No,1,15
496,573,38,2rudkxwms6,conventional,yes,0,Non-Request,4,door,S5,conventional,request,0,Yes,1,16
497,530,40,2rudkxwms6,conventional,yes,1,Request,8,piano,S5,conventional,literal,0,No,0,17
498,2476,42,2rudkxwms6,conventional,yes,1,Non-Request,12,temperature,S5,conventional,literal,1,No,0,18
499,731,44,2rudkxwms6,conventional,yes,0,Request,12,temperature,S5,conventional,request,1,Yes,1,19
500,806,46,2rudkxwms6,conventional,yes,1,Non-Request,3,box,S5,conventional,literal,1,Yes,0,20
501,1855,48,2rudkxwms6,conventional,yes,1,Request,10,spanish,S5,conventional,literal,0,No,0,21
502,1296,50,2rudkxwms6,conventional,yes,1,Non-Request,8,piano,S5,conventional,literal,1,Yes,0,22
503,2915,52,2rudkxwms6,conventional,yes,0,Non-Request,10,spanish,S5,conventional,request,0,Yes,1,23
504,676,54,2rudkxwms6,conventional,yes,0,Non-Request,11,window,S5,conventional,request,0,Yes,1,24
505,2827,56,2rudkxwms6,conventional,yes,1,Non-Request,4,door,S1,conventional,literal,1,No,0,25
506,1187,58,2rudkxwms6,conventional,yes,1,Non-Request,11,window,S1,conventional,literal,1,No,0,26
507,1931,60,2rudkxwms6,conventional,yes,1,Request,12,temperature,S1,conventional,literal,0,No,0,27
508,1351,62,2rudkxwms6,conventional,yes,0,Request,10,spanish,S1,conventional,request,1,No,1,28
509,491,64,2rudkxwms6,conventional,yes,0,Non-Request,10,spanish,S1,conventional,request,0,Yes,1,29
510,884,66,2rudkxwms6,conventional,yes,0,Request,11,window,S1,conventional,request,1,Yes,1,30
511,497,68,2rudkxwms6,conventional,yes,0,Non-Request,12,temperature,S1,conventional,request,0,Yes,1,31
512,1758,70,2rudkxwms6,conventional,yes,0,Request,8,piano,S1,conventional,request,1,No,1,32
513,399,72,2rudkxwms6,conventional,yes,0,Non-Request,3,box,S1,conventional,request,0,No,1,33
514,1563,74,2rudkxwms6,conventional,yes,1,Request,3,box,S1,conventional,literal,0,Yes,0,34
515,995,76,2rudkxwms6,conventional,yes,1,Non-Request,8,piano,S1,conventional,literal,1,Yes,0,35
516,14499,78,2rudkxwms6,conventional,yes,1,Request,4,door,S1,conventional,literal,0,Yes,0,36
517,603,80,2rudkxwms6,conventional,yes,0,Non-Request,11,window,S4,conventional,request,0,No,1,37
518,446,82,2rudkxwms6,conventional,yes,0,Request,12,temperature,S4,conventional,request,1,No,1,38
519,990,84,2rudkxwms6,conventional,yes,1,Request,3,box,S4,conventional,literal,0,No,0,39
520,1524,86,2rudkxwms6,conventional,yes,1,Non-Request,10,spanish,S4,conventional,literal,1,No,0,40
521,852,88,2rudkxwms6,conventional,yes,0,Non-Request,3,box,S4,conventional,request,0,Yes,1,41
522,977,90,2rudkxwms6,conventional,yes,1,Request,8,piano,S4,conventional,literal,0,No,0,42
523,886,92,2rudkxwms6,conventional,yes,1,Request,10,spanish,S4,conventional,literal,0,Yes,0,43
524,1194,94,2rudkxwms6,conventional,yes,1,Non-Request,4,door,S4,conventional,literal,1,No,0,44
525,652,96,2rudkxwms6,conventional,yes,0,Request,11,window,S4,conventional,request,1,Yes,1,45
526,732,98,2rudkxwms6,conventional,yes,0,Non-Request,12,temperature,S4,conventional,request,0,Yes,1,46
527,1736,100,2rudkxwms6,conventional,yes,1,Non-Request,8,piano,S4,conventional,literal,1,Yes,0,47
528,642,102,2rudkxwms6,conventional,yes,0,Request,4,door,S4,conventional,request,1,Yes,1,48
529,1041,104,2rudkxwms6,conventional,yes,1,Request,4,door,S3,conventional,literal,0,No,0,49
530,531,106,2rudkxwms6,conventional,yes,0,Request,11,window,S3,conventional,request,1,No,1,50
531,533,108,2rudkxwms6,conventional,yes,1,Non-Request,4,door,S3,conventional,literal,1,Yes,0,51
532,565,110,2rudkxwms6,conventional,yes,1,Non-Request,12,temperature,S3,conventional,literal,1,No,0,52
533,459,112,2rudkxwms6,conventional,yes,1,Non-Request,8,piano,S3,conventional,literal,1,No,0,53
534,1832,114,2rudkxwms6,conventional,yes,0,Request,12,temperature,S3,conventional,request,1,Yes,1,54
535,1007,116,2rudkxwms6,conventional,yes,0,Request,10,spanish,S3,conventional,request,1,No,1,55
536,732,118,2rudkxwms6,conventional,yes,1,Non-Request,3,box,S3,conventional,literal,1,No,0,56
537,1658,120,2rudkxwms6,conventional,yes,1,Non-Request,10,spanish,S3,conventional,literal,1,Yes,0,57
538,572,122,2rudkxwms6,conventional,yes,1,Request,8,piano,S3,conventional,literal,0,Yes,0,58
539,972,124,2rudkxwms6,conventional,yes,0,Non-Request,11,window,S3,conventional,request,0,Yes,1,59
540,1749,126,2rudkxwms6,conventional,yes,1,Request,3,box,S3,conventional,literal,0,Yes,0,60
541,2235,8,2yzptt0tj7,non_conventional,yes,1,Request,7,phone,S4,nonconventional,literal,0,No,0,1
542,3302,10,2yzptt0tj7,non_conventional,yes,1,Request,1,car,S4,nonconventional,literal,0,No,0,2
543,4244,12,2yzptt0tj7,non_conventional,yes,0,Request,5,laptop,S4,nonconventional,request,1,No,1,3
544,1421,14,2yzptt0tj7,non_conventional,yes,0,Request,9,soup,S4,nonconventional,request,1,No,1,4
545,1395,16,2yzptt0tj7,non_conventional,yes,1,Non-Request,9,soup,S4,nonconventional,literal,1,Yes,0,5
546,3429,18,2yzptt0tj7,non_conventional,yes,1,Request,6,office,S4,nonconventional,literal,0,No,0,6
547,2933,20,2yzptt0tj7,non_conventional,yes,1,Non-Request,2,back,S4,nonconventional,literal,1,No,0,7
548,2749,22,2yzptt0tj7,non_conventional,yes,0,Non-Request,7,phone,S4,nonconventional,request,0,Yes,1,8
549,2256,24,2yzptt0tj7,non_conventional,yes,1,Non-Request,5,laptop,S4,nonconventional,literal,1,Yes,0,9
550,2068,26,2yzptt0tj7,non_conventional,yes,1,Non-Request,6,office,S4,nonconventional,literal,1,Yes,0,10
551,1305,28,2yzptt0tj7,non_conventional,yes,0,Request,2,back,S4,nonconventional,request,1,Yes,1,11
552,1269,30,2yzptt0tj7,non_conventional,yes,0,Non-Request,1,car,S4,nonconventional,request,0,Yes,1,12
553,2250,32,2yzptt0tj7,non_conventional,yes,0,Request,2,back,S1,nonconventional,request,1,No,1,13
554,3054,34,2yzptt0tj7,non_conventional,yes,1,Non-Request,9,soup,S1,nonconventional,literal,1,No,0,14
555,1252,36,2yzptt0tj7,non_conventional,yes,0,Non-Request,6,office,S1,nonconventional,request,0,No,1,15
556,3532,38,2yzptt0tj7,non_conventional,yes,1,Request,5,laptop,S1,nonconventional,literal,0,No,0,16
557,1271,40,2yzptt0tj7,non_conventional,yes,0,Request,6,office,S1,nonconventional,request,1,Yes,1,17
558,996,42,2yzptt0tj7,non_conventional,yes,1,Non-Request,2,back,S1,nonconventional,literal,1,Yes,0,18
559,2437,44,2yzptt0tj7,non_conventional,yes,1,Request,9,soup,S1,nonconventional,literal,0,Yes,0,19
560,2059,46,2yzptt0tj7,non_conventional,yes,1,Non-Request,7,phone,S1,nonconventional,literal,1,No,0,20
561,2391,48,2yzptt0tj7,non_conventional,yes,1,Non-Request,1,car,S1,nonconventional,literal,1,No,0,21
562,5826,50,2yzptt0tj7,non_conventional,yes,0,Request,1,car,S1,nonconventional,request,1,Yes,1,22
563,2755,52,2yzptt0tj7,non_conventional,yes,1,Non-Request,5,laptop,S1,nonconventional,literal,1,Yes,0,23
564,1845,54,2yzptt0tj7,non_conventional,yes,1,Request,7,phone,S1,nonconventional,literal,0,Yes,0,24
565,2068,56,2yzptt0tj7,non_conventional,yes,1,Non-Request,1,car,S3,nonconventional,literal,1,No,0,25
566,1516,58,2yzptt0tj7,non_conventional,yes,0,Request,2,back,S3,nonconventional,request,1,No,1,26
567,1661,60,2yzptt0tj7,non_conventional,yes,1,Non-Request,6,office,S3,nonconventional,literal,1,No,0,27
568,2358,62,2yzptt0tj7,non_conventional,yes,0,Request,7,phone,S3,nonconventional,request,1,No,1,28
569,1151,64,2yzptt0tj7,non_conventional,yes,1,Non-Request,2,back,S3,nonconventional,literal,1,Yes,0,29
570,1270,66,2yzptt0tj7,non_conventional,yes,1,Non-Request,9,soup,S3,nonconventional,literal,1,No,0,30
571,1258,68,2yzptt0tj7,non_conventional,yes,0,Request,1,car,S3,nonconventional,request,1,Yes,1,31
572,1279,70,2yzptt0tj7,non_conventional,yes,0,Request,6,office,S3,nonconventional,request,1,Yes,1,32
573,1318,72,2yzptt0tj7,non_conventional,yes,1,Request,5,laptop,S3,nonconventional,literal,0,No,0,33
574,2322,74,2yzptt0tj7,non_conventional,yes,0,Request,9,soup,S3,nonconventional,request,1,Yes,1,34
575,1258,76,2yzptt0tj7,non_conventional,yes,1,Non-Request,7,phone,S3,nonconventional,literal,1,Yes,0,35
576,1012,78,2yzptt0tj7,non_conventional,yes,1,Non-Request,5,laptop,S3,nonconventional,literal,1,Yes,0,36
577,2875,80,2yzptt0tj7,non_conventional,yes,0,Request,9,soup,S2,nonconventional,request,1,No,1,37
578,1107,82,2yzptt0tj7,non_conventional,yes,1,Non-Request,1,car,S2,nonconventional,literal,1,No,0,38
579,4184,84,2yzptt0tj7,non_conventional,yes,1,Request,5,laptop,S2,nonconventional,literal,0,No,0,39
580,1442,86,2yzptt0tj7,non_conventional,yes,1,Non-Request,2,back,S2,nonconventional,literal,1,No,0,40
581,1264,88,2yzptt0tj7,non_conventional,yes,1,Non-Request,6,office,S2,nonconventional,literal,1,No,0,41
582,992,90,2yzptt0tj7,non_conventional,yes,1,Non-Request,9,soup,S2,nonconventional,literal,1,Yes,0,42
583,1121,92,2yzptt0tj7,non_conventional,yes,1,Request,6,office,S2,nonconventional,literal,0,Yes,0,43
584,1317,94,2yzptt0tj7,non_conventional,yes,1,Non-Request,5,laptop,S2,nonconventional,literal,1,Yes,0,44
585,1741,96,2yzptt0tj7,non_conventional,yes,1,Non-Request,7,phone,S2,nonconventional,literal,1,No,0,45
586,1153,98,2yzptt0tj7,non_conventional,yes,0,Request,2,back,S2,nonconventional,request,1,Yes,1,46
587,990,100,2yzptt0tj7,non_conventional,yes,0,Request,1,car,S2,nonconventional,request,1,Yes,1,47
588,958,102,2yzptt0tj7,non_conventional,yes,1,Request,7,phone,S2,nonconventional,literal,0,Yes,0,48
589,1679,104,2yzptt0tj7,non_conventional,yes,1,Non-Request,5,laptop,S5,nonconventional,literal,1,No,0,49
590,995,106,2yzptt0tj7,non_conventional,yes,0,Request,2,back,S5,nonconventional,request,1,No,1,50
591,1153,108,2yzptt0tj7,non_conventional,yes,1,Non-Request,9,soup,S5,nonconventional,literal,1,No,0,51
592,1586,110,2yzptt0tj7,non_conventional,yes,1,Non-Request,1,car,S5,nonconventional,literal,1,No,0,52
593,1329,112,2yzptt0tj7,non_conventional,yes,1,Non-Request,2,back,S5,nonconventional,literal,1,Yes,0,53
594,1343,114,2yzptt0tj7,non_conventional,yes,1,Non-Request,6,office,S5,nonconventional,literal,1,No,0,54
595,1112,116,2yzptt0tj7,non_conventional,yes,0,Request,7,phone,S5,nonconventional,request,1,No,1,55
596,1394,118,2yzptt0tj7,non_conventional,yes,0,Request,5,laptop,S5,nonconventional,request,1,Yes,1,56
597,1358,120,2yzptt0tj7,non_conventional,yes,0,Request,1,car,S5,nonconventional,request,1,Yes,1,57
598,1394,122,2yzptt0tj7,non_conventional,yes,0,Request,9,soup,S5,nonconventional,request,1,Yes,1,58
599,1333,124,2yzptt0tj7,non_conventional,yes,1,Non-Request,7,phone,S5,nonconventional,literal,1,Yes,0,59
600,1731,126,2yzptt0tj7,non_conventional,yes,0,Request,6,office,S5,nonconventional,request,1,Yes,1,60
601,3179,8,3fkksxxtcs,non_conventional,yes,1,Non-Request,7,phone,S3,nonconventional,literal,1,No,0,1
602,2217,10,3fkksxxtcs,non_conventional,yes,1,Non-Request,6,office,S3,nonconventional,literal,1,No,0,2
603,9726,12,3fkksxxtcs,non_conventional,yes,1,Request,5,laptop,S3,nonconventional,literal,0,No,0,3
604,7264,14,3fkksxxtcs,non_conventional,yes,0,Request,1,car,S3,nonconventional,request,1,No,1,4
605,1361,16,3fkksxxtcs,non_conventional,yes,1,Non-Request,2,back,S3,nonconventional,literal,1,No,0,5
606,3405,18,3fkksxxtcs,non_conventional,yes,0,Request,2,back,S3,nonconventional,request,1,Yes,1,6
607,1820,20,3fkksxxtcs,non_conventional,yes,1,Non-Request,9,soup,S3,nonconventional,literal,1,No,0,7
608,1079,22,3fkksxxtcs,non_conventional,yes,0,Non-Request,1,car,S3,nonconventional,request,0,Yes,1,8
609,1566,24,3fkksxxtcs,non_conventional,yes,0,Request,6,office,S3,nonconventional,request,1,Yes,1,9
610,2638,26,3fkksxxtcs,non_conventional,yes,1,Non-Request,5,laptop,S3,nonconventional,literal,1,Yes,0,10
611,3241,28,3fkksxxtcs,non_conventional,yes,0,Request,9,soup,S3,nonconventional,request,1,Yes,1,11
612,1726,30,3fkksxxtcs,non_conventional,yes,1,Request,7,phone,S3,nonconventional,literal,0,Yes,0,12
613,500,32,3fkksxxtcs,non_conventional,yes,1,Non-Request,5,laptop,S2,nonconventional,literal,1,No,0,13
614,498,34,3fkksxxtcs,non_conventional,yes,1,Request,2,back,S2,nonconventional,literal,0,No,0,14
615,466,36,3fkksxxtcs,non_conventional,yes,1,Request,9,soup,S2,nonconventional,literal,0,No,0,15
616,557,38,3fkksxxtcs,non_conventional,yes,1,Non-Request,6,office,S2,nonconventional,literal,1,No,0,16
617,936,40,3fkksxxtcs,non_conventional,yes,1,Request,5,laptop,S2,nonconventional,literal,0,Yes,0,17
618,592,42,3fkksxxtcs,non_conventional,yes,1,Request,1,car,S2,nonconventional,literal,0,No,0,18
619,557,44,3fkksxxtcs,non_conventional,yes,1,Request,6,office,S2,nonconventional,literal,0,Yes,0,19
620,582,46,3fkksxxtcs,non_conventional,yes,1,Non-Request,7,phone,S2,nonconventional,literal,1,No,0,20
621,661,48,3fkksxxtcs,non_conventional,yes,1,Non-Request,1,car,S2,nonconventional,literal,1,Yes,0,21
622,4960,50,3fkksxxtcs,non_conventional,yes,0,Non-Request,9,soup,S2,nonconventional,request,0,Yes,1,22
623,641,52,3fkksxxtcs,non_conventional,yes,1,Request,7,phone,S2,nonconventional,literal,0,Yes,0,23
624,3142,54,3fkksxxtcs,non_conventional,yes,0,Non-Request,2,back,S2,nonconventional,request,0,Yes,1,24
625,918,56,3fkksxxtcs,non_conventional,yes,0,Non-Request,9,soup,S4,nonconventional,request,0,No,1,25
626,886,58,3fkksxxtcs,non_conventional,yes,1,Non-Request,5,laptop,S4,nonconventional,literal,1,No,0,26
627,2907,60,3fkksxxtcs,non_conventional,yes,1,Request,5,laptop,S4,nonconventional,literal,0,Yes,0,27
628,1329,62,3fkksxxtcs,non_conventional,yes,1,Request,7,phone,S4,nonconventional,literal,0,No,0,28
629,1996,64,3fkksxxtcs,non_conventional,yes,0,Non-Request,6,office,S4,nonconventional,request,0,No,1,29
630,2111,66,3fkksxxtcs,non_conventional,yes,0,Non-Request,7,phone,S4,nonconventional,request,0,Yes,1,30
631,2670,68,3fkksxxtcs,non_conventional,yes,1,Non-Request,2,back,S4,nonconventional,literal,1,No,0,31
632,4952,70,3fkksxxtcs,non_conventional,yes,1,Non-Request,1,car,S4,nonconventional,literal,1,No,0,32
633,1217,72,3fkksxxtcs,non_conventional,yes,1,Request,1,car,S4,nonconventional,literal,0,Yes,0,33
634,1003,74,3fkksxxtcs,non_conventional,yes,0,Request,6,office,S4,nonconventional,request,1,Yes,1,34
635,2735,76,3fkksxxtcs,non_conventional,yes,1,Request,2,back,S4,nonconventional,literal,0,Yes,0,35
636,6487,78,3fkksxxtcs,non_conventional,yes,0,Request,9,soup,S4,nonconventional,request,1,Yes,1,36
637,3123,80,3fkksxxtcs,non_conventional,yes,0,Non-Request,9,soup,S5,nonconventional,request,0,No,1,37
638,1298,82,3fkksxxtcs,non_conventional,yes,0,Request,1,car,S5,nonconventional,request,1,No,1,38
639,1492,84,3fkksxxtcs,non_conventional,yes,1,Request,5,laptop,S5,nonconventional,literal,0,No,0,39
640,541,86,3fkksxxtcs,non_conventional,yes,1,Non-Request,1,car,S5,nonconventional,literal,1,Yes,0,40
641,1423,88,3fkksxxtcs,non_conventional,yes,1,Non-Request,5,laptop,S5,nonconventional,literal,1,Yes,0,41
642,1828,90,3fkksxxtcs,non_conventional,yes,1,Request,7,phone,S5,nonconventional,literal,0,No,0,42
643,1680,92,3fkksxxtcs,non_conventional,yes,1,Non-Request,6,office,S5,nonconventional,literal,1,No,0,43
644,864,94,3fkksxxtcs,non_conventional,yes,1,Non-Request,2,back,S5,nonconventional,literal,1,No,0,44
645,5390,96,3fkksxxtcs,non_conventional,yes,0,Request,6,office,S5,nonconventional,request,1,Yes,1,45
646,2597,98,3fkksxxtcs,non_conventional,yes,0,Request,9,soup,S5,nonconventional,request,1,Yes,1,46
647,1417,100,3fkksxxtcs,non_conventional,yes,1,Non-Request,7,phone,S5,nonconventional,literal,1,Yes,0,47
648,966,102,3fkksxxtcs,non_conventional,yes,0,Request,2,back,S5,nonconventional,request,1,Yes,1,48
649,1084,104,3fkksxxtcs,non_conventional,yes,1,Non-Request,2,back,S1,nonconventional,literal,1,No,0,49
650,2154,106,3fkksxxtcs,non_conventional,yes,1,Non-Request,6,office,S1,nonconventional,literal,1,No,0,50
651,1124,108,3fkksxxtcs,non_conventional,yes,1,Request,6,office,S1,nonconventional,literal,0,Yes,0,51
652,5596,110,3fkksxxtcs,non_conventional,yes,1,Request,7,phone,S1,nonconventional,literal,0,No,0,52
653,972,112,3fkksxxtcs,non_conventional,yes,1,Request,2,back,S1,nonconventional,literal,0,Yes,0,53
654,753,114,3fkksxxtcs,non_conventional,yes,1,Request,5,laptop,S1,nonconventional,literal,0,No,0,54
655,778,116,3fkksxxtcs,non_conventional,yes,1,Non-Request,1,car,S1,nonconventional,literal,1,No,0,55
656,1033,118,3fkksxxtcs,non_conventional,yes,1,Request,9,soup,S1,nonconventional,literal,0,No,0,56
657,-183,120,3fkksxxtcs,non_conventional,yes,1,Non-Request,9,soup,S1,nonconventional,literal,1,Yes,0,57
658,901,122,3fkksxxtcs,non_conventional,yes,1,Request,1,car,S1,nonconventional,literal,0,Yes,0,58
659,1744,124,3fkksxxtcs,non_conventional,yes,1,Non-Request,7,phone,S1,nonconventional,literal,1,Yes,0,59
660,3548,126,3fkksxxtcs,non_conventional,yes,0,Non-Request,5,laptop,S1,nonconventional,request,0,Yes,1,60
661,5684,8,3rt9q37w6d,non_conventional,yes,1,Non-Request,6,office,S1,nonconventional,literal,1,No,0,1
662,3866,10,3rt9q37w6d,non_conventional,yes,1,Request,5,laptop,S1,nonconventional,literal,0,No,0,2
663,1740,12,3rt9q37w6d,non_conventional,yes,1,Request,2,back,S1,nonconventional,literal,0,No,0,3
664,2294,14,3rt9q37w6d,non_conventional,yes,0,Non-Request,9,soup,S1,nonconventional,request,0,No,1,4
665,1024,16,3rt9q37w6d,non_conventional,yes,1,Request,7,phone,S1,nonconventional,literal,0,No,0,5
666,1594,18,3rt9q37w6d,non_conventional,yes,1,Non-Request,5,laptop,S1,nonconventional,literal,1,Yes,0,6
667,3410,20,3rt9q37w6d,non_conventional,yes,0,Request,6,office,S1,nonconventional,request,1,Yes,1,7
668,1630,22,3rt9q37w6d,non_conventional,yes,1,Non-Request,2,back,S1,nonconventional,literal,1,Yes,0,8
669,3068,24,3rt9q37w6d,non_conventional,yes,1,Request,1,car,S1,nonconventional,literal,0,No,0,9
670,6625,26,3rt9q37w6d,non_conventional,yes,1,Request,9,soup,S1,nonconventional,literal,0,Yes,0,10
671,3850,28,3rt9q37w6d,non_conventional,yes,1,Non-Request,7,phone,S1,nonconventional,literal,1,Yes,0,11
672,3112,30,3rt9q37w6d,non_conventional,yes,0,Non-Request,1,car,S1,nonconventional,request,0,Yes,1,12
673,2922,32,3rt9q37w6d,non_conventional,yes,0,Request,6,office,S3,nonconventional,request,1,No,1,13
674,1042,34,3rt9q37w6d,non_conventional,yes,1,Non-Request,2,back,S3,nonconventional,literal,1,No,0,14
675,1582,36,3rt9q37w6d,non_conventional,yes,0,Request,1,car,S3,nonconventional,request,1,No,1,15
676,852,38,3rt9q37w6d,non_conventional,yes,1,Non-Request,5,laptop,S3,nonconventional,literal,1,No,0,16
677,2161,40,3rt9q37w6d,non_conventional,yes,1,Non-Request,7,phone,S3,nonconventional,literal,1,No,0,17
678,2153,42,3rt9q37w6d,non_conventional,yes,1,Non-Request,1,car,S3,nonconventional,literal,1,Yes,0,18
679,2471,44,3rt9q37w6d,non_conventional,yes,1,Request,5,laptop,S3,nonconventional,literal,0,Yes,0,19
680,1826,46,3rt9q37w6d,non_conventional,yes,0,Request,7,phone,S3,nonconventional,request,1,Yes,1,20
681,5740,48,3rt9q37w6d,non_conventional,yes,0,Request,9,soup,S3,nonconventional,request,1,No,1,21
682,1493,50,3rt9q37w6d,non_conventional,yes,0,Non-Request,6,office,S3,nonconventional,request,0,Yes,1,22
683,1503,52,3rt9q37w6d,non_conventional,yes,1,Request,2,back,S3,nonconventional,literal,0,Yes,0,23
684,1166,54,3rt9q37w6d,non_conventional,yes,0,Non-Request,9,soup,S3,nonconventional,request,0,Yes,1,24
685,3234,56,3rt9q37w6d,non_conventional,yes,1,Non-Request,5,laptop,S4,nonconventional,literal,1,No,0,25
686,1334,58,3rt9q37w6d,non_conventional,yes,0,Request,5,laptop,S4,nonconventional,request,1,Yes,1,26
687,782,60,3rt9q37w6d,non_conventional,yes,1,Non-Request,7,phone,S4,nonconventional,literal,1,No,0,27
688,2336,62,3rt9q37w6d,non_conventional,yes,0,Request,2,back,S4,nonconventional,request,1,No,1,28
689,2848,64,3rt9q37w6d,non_conventional,yes,1,Request,1,car,S4,nonconventional,literal,0,No,0,29
690,2312,66,3rt9q37w6d,non_conventional,yes,0,Request,6,office,S4,nonconventional,request,1,No,1,30
691,2640,68,3rt9q37w6d,non_conventional,yes,1,Non-Request,1,car,S4,nonconventional,literal,1,Yes,0,31
692,5242,70,3rt9q37w6d,non_conventional,yes,0,Non-Request,6,office,S4,nonconventional,request,0,Yes,1,32
693,2066,72,3rt9q37w6d,non_conventional,yes,1,Non-Request,9,soup,S4,nonconventional,literal,1,No,0,33
694,763,74,3rt9q37w6d,non_conventional,yes,1,Non-Request,2,back,S4,nonconventional,literal,1,Yes,0,34
695,2613,76,3rt9q37w6d,non_conventional,yes,0,Request,9,soup,S4,nonconventional,request,1,Yes,1,35
696,806,78,3rt9q37w6d,non_conventional,yes,1,Request,7,phone,S4,nonconventional,literal,0,Yes,0,36
697,658,80,3rt9q37w6d,non_conventional,yes,1,Non-Request,2,back,S5,nonconventional,literal,1,No,0,37
698,652,82,3rt9q37w6d,non_conventional,yes,1,Non-Request,6,office,S5,nonconventional,literal,1,No,0,38
699,2497,84,3rt9q37w6d,non_conventional,yes,0,Request,2,back,S5,nonconventional,request,1,Yes,1,39
700,810,86,3rt9q37w6d,non_conventional,yes,0,Request,7,phone,S5,nonconventional,request,1,No,1,40
701,2488,88,3rt9q37w6d,non_conventional,yes,1,Non-Request,1,car,S5,nonconventional,literal,1,No,0,41
702,1250,90,3rt9q37w6d,non_conventional,yes,1,Non-Request,7,phone,S5,nonconventional,literal,1,Yes,0,42
703,1402,92,3rt9q37w6d,non_conventional,yes,0,Request,5,laptop,S5,nonconventional,request,1,No,1,43
704,624,94,3rt9q37w6d,non_conventional,yes,0,Request,6,office,S5,nonconventional,request,1,Yes,1,44
705,1288,96,3rt9q37w6d,non_conventional,yes,0,Request,1,car,S5,nonconventional,request,1,Yes,1,45
706,1859,98,3rt9q37w6d,non_conventional,yes,1,Request,9,soup,S5,nonconventional,literal,0,No,0,46
707,497,100,3rt9q37w6d,non_conventional,yes,1,Non-Request,5,laptop,S5,nonconventional,literal,1,Yes,0,47
708,591,102,3rt9q37w6d,non_conventional,yes,1,Non-Request,9,soup,S5,nonconventional,literal,1,Yes,0,48
709,431,104,3rt9q37w6d,non_conventional,yes,1,Request,5,laptop,S2,nonconventional,literal,0,No,0,49
710,669,106,3rt9q37w6d,non_conventional,yes,0,Request,9,soup,S2,nonconventional,request,1,No,1,50
711,517,108,3rt9q37w6d,non_conventional,yes,1,Request,7,phone,S2,nonconventional,literal,0,No,0,51
712,2473,110,3rt9q37w6d,non_conventional,yes,0,Non-Request,2,back,S2,nonconventional,request,0,No,1,52
713,675,112,3rt9q37w6d,non_conventional,yes,1,Non-Request,1,car,S2,nonconventional,literal,1,No,0,53
714,628,114,3rt9q37w6d,non_conventional,yes,1,Non-Request,6,office,S2,nonconventional,literal,1,No,0,54
715,415,116,3rt9q37w6d,non_conventional,yes,1,Non-Request,5,laptop,S2,nonconventional,literal,1,Yes,0,55
716,401,118,3rt9q37w6d,non_conventional,yes,0,Request,6,office,S2,nonconventional,request,1,Yes,1,56
717,599,120,3rt9q37w6d,non_conventional,yes,0,Request,1,car,S2,nonconventional,request,1,Yes,1,57
718,415,122,3rt9q37w6d,non_conventional,yes,1,Non-Request,7,phone,S2,nonconventional,literal,1,Yes,0,58
719,618,124,3rt9q37w6d,non_conventional,yes,1,Non-Request,9,soup,S2,nonconventional,literal,1,Yes,0,59
720,514,126,3rt9q37w6d,non_conventional,yes,0,Request,2,back,S2,nonconventional,request,1,Yes,1,60
721,2727,8,47osobapp3,non_conventional,yes,1,Request,9,soup,S1,nonconventional,literal,0,No,0,1
722,1425,10,47osobapp3,non_conventional,yes,1,Request,1,car,S1,nonconventional,literal,0,No,0,2
723,1352,12,47osobapp3,non_conventional,yes,1,Non-Request,1,car,S1,nonconventional,literal,1,Yes,0,3
724,1779,14,47osobapp3,non_conventional,yes,1,Request,5,laptop,S1,nonconventional,literal,0,No,0,4
725,2194,16,47osobapp3,non_conventional,yes,1,Non-Request,6,office,S1,nonconventional,literal,1,No,0,5
726,677,18,47osobapp3,non_conventional,yes,1,Non-Request,2,back,S1,nonconventional,literal,1,No,0,6
727,1929,20,47osobapp3,non_conventional,yes,1,Request,7,phone,S1,nonconventional,literal,0,No,0,7
728,940,22,47osobapp3,non_conventional,yes,1,Request,6,office,S1,nonconventional,literal,0,Yes,0,8
729,1251,24,47osobapp3,non_conventional,yes,1,Non-Request,5,laptop,S1,nonconventional,literal,1,Yes,0,9
730,1186,26,47osobapp3,non_conventional,yes,1,Non-Request,7,phone,S1,nonconventional,literal,1,Yes,0,10
731,580,28,47osobapp3,non_conventional,yes,1,Non-Request,9,soup,S1,nonconventional,literal,1,Yes,0,11
732,929,30,47osobapp3,non_conventional,yes,1,Request,2,back,S1,nonconventional,literal,0,Yes,0,12
733,1878,32,47osobapp3,non_conventional,yes,1,Request,9,soup,S5,nonconventional,literal,0,No,0,13
734,736,34,47osobapp3,non_conventional,yes,1,Non-Request,6,office,S5,nonconventional,literal,1,No,0,14
735,669,36,47osobapp3,non_conventional,yes,1,Request,7,phone,S5,nonconventional,literal,0,No,0,15
736,694,38,47osobapp3,non_conventional,yes,1,Non-Request,5,laptop,S5,nonconventional,literal,1,No,0,16
737,527,40,47osobapp3,non_conventional,yes,1,Request,5,laptop,S5,nonconventional,literal,0,Yes,0,17
738,1176,42,47osobapp3,non_conventional,yes,1,Non-Request,7,phone,S5,nonconventional,literal,1,Yes,0,18
739,909,44,47osobapp3,non_conventional,yes,1,Request,6,office,S5,nonconventional,literal,0,Yes,0,19
740,1134,46,47osobapp3,non_conventional,yes,1,Non-Request,2,back,S5,nonconventional,literal,1,No,0,20
741,551,48,47osobapp3,non_conventional,yes,1,Non-Request,9,soup,S5,nonconventional,literal,1,Yes,0,21
742,2071,50,47osobapp3,non_conventional,yes,1,Request,2,back,S5,nonconventional,literal,0,Yes,0,22
743,1821,52,47osobapp3,non_conventional,yes,1,Non-Request,1,car,S5,nonconventional,literal,1,No,0,23
744,1549,54,47osobapp3,non_conventional,yes,0,Request,1,car,S5,nonconventional,request,1,Yes,1,24
745,587,56,47osobapp3,non_conventional,yes,1,Request,5,laptop,S2,nonconventional,literal,0,No,0,25
746,842,58,47osobapp3,non_conventional,yes,1,Non-Request,2,back,S2,nonconventional,literal,1,No,0,26
747,420,60,47osobapp3,non_conventional,yes,1,Request,7,phone,S2,nonconventional,literal,0,No,0,27
748,1001,62,47osobapp3,non_conventional,yes,1,Non-Request,6,office,S2,nonconventional,literal,1,No,0,28
749,793,64,47osobapp3,non_conventional,yes,1,Request,9,soup,S2,nonconventional,literal,0,No,0,29
750,788,66,47osobapp3,non_conventional,yes,1,Non-Request,7,phone,S2,nonconventional,literal,1,Yes,0,30
751,668,68,47osobapp3,non_conventional,yes,1,Request,2,back,S2,nonconventional,literal,0,Yes,0,31
752,1408,70,47osobapp3,non_conventional,yes,1,Non-Request,9,soup,S2,nonconventional,literal,1,Yes,0,32
753,590,72,47osobapp3,non_conventional,yes,1,Request,6,office,S2,nonconventional,literal,0,Yes,0,33
754,787,74,47osobapp3,non_conventional,yes,1,Request,1,car,S2,nonconventional,literal,0,No,0,34
755,594,76,47osobapp3,non_conventional,yes,1,Non-Request,1,car,S2,nonconventional,literal,1,Yes,0,35
756,518,78,47osobapp3,non_conventional,yes,1,Non-Request,5,laptop,S2,nonconventional,literal,1,Yes,0,36
757,1232,80,47osobapp3,non_conventional,yes,1,Non-Request,6,office,S3,nonconventional,literal,1,No,0,37
758,1117,82,47osobapp3,non_conventional,yes,0,Non-Request,9,soup,S3,nonconventional,request,0,No,1,38
759,1075,84,47osobapp3,non_conventional,yes,1,Request,7,phone,S3,nonconventional,literal,0,No,0,39
760,611,86,47osobapp3,non_conventional,yes,1,Non-Request,7,phone,S3,nonconventional,literal,1,Yes,0,40
761,570,88,47osobapp3,non_conventional,yes,1,Non-Request,5,laptop,S3,nonconventional,literal,1,No,0,41
762,851,90,47osobapp3,non_conventional,yes,0,Request,2,back,S3,nonconventional,request,1,No,1,42
763,896,92,47osobapp3,non_conventional,yes,1,Non-Request,1,car,S3,nonconventional,literal,1,No,0,43
764,620,94,47osobapp3,non_conventional,yes,0,Request,1,car,S3,nonconventional,request,1,Yes,1,44
765,423,96,47osobapp3,non_conventional,yes,1,Non-Request,2,back,S3,nonconventional,literal,1,Yes,0,45
766,599,98,47osobapp3,non_conventional,yes,1,Request,5,laptop,S3,nonconventional,literal,0,Yes,0,46
767,842,100,47osobapp3,non_conventional,yes,1,Request,9,soup,S3,nonconventional,literal,0,Yes,0,47
768,576,102,47osobapp3,non_conventional,yes,1,Request,6,office,S3,nonconventional,literal,0,Yes,0,48
769,1880,104,47osobapp3,non_conventional,yes,1,Request,7,phone,S4,nonconventional,literal,0,No,0,49
770,449,106,47osobapp3,non_conventional,yes,1,Non-Request,1,car,S4,nonconventional,literal,1,No,0,50
771,1273,108,47osobapp3,non_conventional,yes,1,Non-Request,6,office,S4,nonconventional,literal,1,No,0,51
772,2151,110,47osobapp3,non_conventional,yes,1,Request,1,car,S4,nonconventional,literal,0,Yes,0,52
773,841,112,47osobapp3,non_conventional,yes,1,Non-Request,7,phone,S4,nonconventional,literal,1,Yes,0,53
774,566,114,47osobapp3,non_conventional,yes,1,Non-Request,2,back,S4,nonconventional,literal,1,No,0,54
775,413,116,47osobapp3,non_conventional,yes,1,Non-Request,5,laptop,S4,nonconventional,literal,1,No,0,55
776,673,118,47osobapp3,non_conventional,yes,1,Request,2,back,S4,nonconventional,literal,0,Yes,0,56
777,1531,120,47osobapp3,non_conventional,yes,0,Request,9,soup,S4,nonconventional,request,1,No,1,57
778,694,122,47osobapp3,non_conventional,yes,1,Non-Request,9,soup,S4,nonconventional,literal,1,Yes,0,58
779,894,124,47osobapp3,non_conventional,yes,1,Request,5,laptop,S4,nonconventional,literal,0,Yes,0,59
780,702,126,47osobapp3,non_conventional,yes,1,Request,6,office,S4,nonconventional,literal,0,Yes,0,60
781,1362,8,50cb9yjguw,non_conventional,yes,1,Request,7,phone,S2,nonconventional,literal,0,No,0,1
782,800,10,50cb9yjguw,non_conventional,yes,1,Non-Request,2,back,S2,nonconventional,literal,1,No,0,2
783,542,12,50cb9yjguw,non_conventional,yes,1,Request,6,office,S2,nonconventional,literal,0,No,0,3
784,666,14,50cb9yjguw,non_conventional,yes,1,Request,2,back,S2,nonconventional,literal,0,Yes,0,4
785,532,16,50cb9yjguw,non_conventional,yes,1,Non-Request,6,office,S2,nonconventional,literal,1,Yes,0,5
786,499,18,50cb9yjguw,non_conventional,yes,1,Request,1,car,S2,nonconventional,literal,0,No,0,6
787,503,20,50cb9yjguw,non_conventional,yes,1,Request,9,soup,S2,nonconventional,literal,0,No,0,7
788,176,22,50cb9yjguw,non_conventional,yes,1,Non-Request,5,laptop,S2,nonconventional,literal,1,No,0,8
789,308,24,50cb9yjguw,non_conventional,yes,1,Non-Request,7,phone,S2,nonconventional,literal,1,Yes,0,9
790,1129,26,50cb9yjguw,non_conventional,yes,1,Non-Request,9,soup,S2,nonconventional,literal,1,Yes,0,10
791,352,28,50cb9yjguw,non_conventional,yes,1,Request,5,laptop,S2,nonconventional,literal,0,Yes,0,11
792,1049,30,50cb9yjguw,non_conventional,yes,1,Non-Request,1,car,S2,nonconventional,literal,1,Yes,0,12
793,721,32,50cb9yjguw,non_conventional,yes,1,Non-Request,7,phone,S5,nonconventional,literal,1,No,0,13
794,2616,34,50cb9yjguw,non_conventional,yes,1,Non-Request,5,laptop,S5,nonconventional,literal,1,No,0,14
795,1983,36,50cb9yjguw,non_conventional,yes,1,Request,5,laptop,S5,nonconventional,literal,0,Yes,0,15
796,1290,38,50cb9yjguw,non_conventional,yes,1,Non-Request,1,car,S5,nonconventional,literal,1,No,0,16
797,484,40,50cb9yjguw,non_conventional,yes,1,Non-Request,9,soup,S5,nonconventional,literal,1,No,0,17
798,927,42,50cb9yjguw,non_conventional,yes,1,Non-Request,6,office,S5,nonconventional,literal,1,No,0,18
799,1021,44,50cb9yjguw,non_conventional,yes,1,Request,2,back,S5,nonconventional,literal,0,No,0,19
800,363,46,50cb9yjguw,non_conventional,yes,1,Request,9,soup,S5,nonconventional,literal,0,Yes,0,20
801,405,48,50cb9yjguw,non_conventional,yes,1,Non-Request,2,back,S5,nonconventional,literal,1,Yes,0,21
802,1009,50,50cb9yjguw,non_conventional,yes,1,Request,6,office,S5,nonconventional,literal,0,Yes,0,22
803,3308,52,50cb9yjguw,non_conventional,yes,1,Request,7,phone,S5,nonconventional,literal,0,Yes,0,23
804,754,54,50cb9yjguw,non_conventional,yes,1,Request,1,car,S5,nonconventional,literal,0,Yes,0,24
805,551,56,50cb9yjguw,non_conventional,yes,1,Non-Request,2,back,S4,nonconventional,literal,1,No,0,25
806,866,58,50cb9yjguw,non_conventional,yes,1,Non-Request,6,office,S4,nonconventional,literal,1,No,0,26
807,874,60,50cb9yjguw,non_conventional,yes,1,Non-Request,5,laptop,S4,nonconventional,literal,1,No,0,27
808,1069,62,50cb9yjguw,non_conventional,yes,1,Request,1,car,S4,nonconventional,literal,0,No,0,28
809,1181,64,50cb9yjguw,non_conventional,yes,1,Request,5,laptop,S4,nonconventional,literal,0,Yes,0,29
810,548,66,50cb9yjguw,non_conventional,yes,1,Non-Request,1,car,S4,nonconventional,literal,1,Yes,0,30
811,1752,68,50cb9yjguw,non_conventional,yes,1,Request,2,back,S4,nonconventional,literal,0,Yes,0,31
812,1067,70,50cb9yjguw,non_conventional,yes,1,Non-Request,7,phone,S4,nonconventional,literal,1,No,0,32
813,2405,72,50cb9yjguw,non_conventional,yes,1,Request,7,phone,S4,nonconventional,literal,0,Yes,0,33
814,747,74,50cb9yjguw,non_conventional,yes,1,Request,6,office,S4,nonconventional,literal,0,Yes,0,34
815,972,76,50cb9yjguw,non_conventional,yes,1,Non-Request,9,soup,S4,nonconventional,literal,1,No,0,35
816,1048,78,50cb9yjguw,non_conventional,yes,1,Request,9,soup,S4,nonconventional,literal,0,Yes,0,36
817,480,80,50cb9yjguw,non_conventional,yes,1,Non-Request,9,soup,S1,nonconventional,literal,1,No,0,37
818,748,82,50cb9yjguw,non_conventional,yes,1,Non-Request,7,phone,S1,nonconventional,literal,1,No,0,38
819,833,84,50cb9yjguw,non_conventional,yes,1,Request,2,back,S1,nonconventional,literal,0,No,0,39
820,2805,86,50cb9yjguw,non_conventional,yes,1,Request,1,car,S1,nonconventional,literal,0,No,0,40
821,2541,88,50cb9yjguw,non_conventional,yes,1,Non-Request,2,back,S1,nonconventional,literal,1,Yes,0,41
822,1898,90,50cb9yjguw,non_conventional,yes,1,Request,6,office,S1,nonconventional,literal,0,No,0,42
823,5886,92,50cb9yjguw,non_conventional,yes,1,Request,7,phone,S1,nonconventional,literal,0,Yes,0,43
824,1027,94,50cb9yjguw,non_conventional,yes,1,Non-Request,6,office,S1,nonconventional,literal,1,Yes,0,44
825,695,96,50cb9yjguw,non_conventional,yes,1,Request,5,laptop,S1,nonconventional,literal,0,No,0,45
826,590,98,50cb9yjguw,non_conventional,yes,1,Request,9,soup,S1,nonconventional,literal,0,Yes,0,46
827,545,100,50cb9yjguw,non_conventional,yes,1,Non-Request,5,laptop,S1,nonconventional,literal,1,Yes,0,47
828,528,102,50cb9yjguw,non_conventional,yes,1,Non-Request,1,car,S1,nonconventional,literal,1,Yes,0,48
829,1165,104,50cb9yjguw,non_conventional,yes,1,Non-Request,1,car,S3,nonconventional,literal,1,No,0,49
830,4037,106,50cb9yjguw,non_conventional,yes,0,Request,2,back,S3,nonconventional,request,1,No,1,50
831,686,108,50cb9yjguw,non_conventional,yes,1,Request,7,phone,S3,nonconventional,literal,0,No,0,51
832,659,110,50cb9yjguw,non_conventional,yes,1,Non-Request,5,laptop,S3,nonconventional,literal,1,No,0,52
833,1358,112,50cb9yjguw,non_conventional,yes,0,Request,9,soup,S3,nonconventional,request,1,No,1,53
834,569,114,50cb9yjguw,non_conventional,yes,1,Non-Request,2,back,S3,nonconventional,literal,1,Yes,0,54
835,1305,116,50cb9yjguw,non_conventional,yes,0,Request,6,office,S3,nonconventional,request,1,No,1,55
836,2091,118,50cb9yjguw,non_conventional,yes,1,Non-Request,7,phone,S3,nonconventional,literal,1,Yes,0,56
837,1239,120,50cb9yjguw,non_conventional,yes,1,Request,5,laptop,S3,nonconventional,literal,0,Yes,0,57
838,518,122,50cb9yjguw,non_conventional,yes,1,Request,1,car,S3,nonconventional,literal,0,Yes,0,58
839,1096,124,50cb9yjguw,non_conventional,yes,1,Non-Request,6,office,S3,nonconventional,literal,1,Yes,0,59
840,683,126,50cb9yjguw,non_conventional,yes,1,Non-Request,9,soup,S3,nonconventional,literal,1,Yes,0,60
841,1496,8,5qatnr6cot,conventional,yes,0,Request,8,piano,S4,conventional,request,1,No,1,1
842,2246,10,5qatnr6cot,conventional,yes,1,Request,10,spanish,S4,conventional,literal,0,No,0,2
843,845,12,5qatnr6cot,conventional,yes,0,Request,4,door,S4,conventional,request,1,No,1,3
844,922,14,5qatnr6cot,conventional,yes,0,Non-Request,4,door,S4,conventional,request,0,Yes,1,4
845,772,16,5qatnr6cot,conventional,yes,0,Request,12,temperature,S4,conventional,request,1,No,1,5
846,1342,18,5qatnr6cot,conventional,yes,1,Non-Request,3,box,S4,conventional,literal,1,No,0,6
847,622,20,5qatnr6cot,conventional,yes,0,Request,11,window,S4,conventional,request,1,No,1,7
848,789,22,5qatnr6cot,conventional,yes,1,Non-Request,8,piano,S4,conventional,literal,1,Yes,0,8
849,1029,24,5qatnr6cot,conventional,yes,0,Non-Request,12,temperature,S4,conventional,request,0,Yes,1,9
850,760,26,5qatnr6cot,conventional,yes,0,Non-Request,11,window,S4,conventional,request,0,Yes,1,10
851,620,28,5qatnr6cot,conventional,yes,0,Request,3,box,S4,conventional,request,1,Yes,1,11
852,1082,30,5qatnr6cot,conventional,yes,1,Non-Request,10,spanish,S4,conventional,literal,1,Yes,0,12
853,900,32,5qatnr6cot,conventional,yes,0,Request,10,spanish,S2,conventional,request,1,No,1,13
854,630,34,5qatnr6cot,conventional,yes,0,Request,8,piano,S2,conventional,request,1,No,1,14
855,668,36,5qatnr6cot,conventional,yes,0,Request,11,window,S2,conventional,request,1,No,1,15
856,1121,38,5qatnr6cot,conventional,yes,0,Request,3,box,S2,conventional,request,1,No,1,16
857,1026,40,5qatnr6cot,conventional,yes,0,Request,4,door,S2,conventional,request,1,No,1,17
858,813,42,5qatnr6cot,conventional,yes,1,Non-Request,8,piano,S2,conventional,literal,1,Yes,0,18
859,776,44,5qatnr6cot,conventional,yes,1,Non-Request,10,spanish,S2,conventional,literal,1,Yes,0,19
860,830,46,5qatnr6cot,conventional,yes,0,Non-Request,4,door,S2,conventional,request,0,Yes,1,20
861,646,48,5qatnr6cot,conventional,yes,0,Non-Request,3,box,S2,conventional,request,0,Yes,1,21
862,1692,50,5qatnr6cot,conventional,yes,0,Non-Request,11,window,S2,conventional,request,0,Yes,1,22
863,1193,52,5qatnr6cot,conventional,yes,1,Non-Request,12,temperature,S2,conventional,literal,1,No,0,23
864,610,54,5qatnr6cot,conventional,yes,0,Request,12,temperature,S2,conventional,request,1,Yes,1,24
865,697,56,5qatnr6cot,conventional,yes,0,Request,12,temperature,S3,conventional,request,1,No,1,25
866,660,58,5qatnr6cot,conventional,yes,1,Non-Request,12,temperature,S3,conventional,literal,1,Yes,0,26
867,646,60,5qatnr6cot,conventional,yes,1,Non-Request,11,window,S3,conventional,literal,1,No,0,27
868,568,62,5qatnr6cot,conventional,yes,1,Non-Request,10,spanish,S3,conventional,literal,1,No,0,28
869,900,64,5qatnr6cot,conventional,yes,1,Request,4,door,S3,conventional,literal,0,No,0,29
870,527,66,5qatnr6cot,conventional,yes,1,Non-Request,3,box,S3,conventional,literal,1,No,0,30
871,588,68,5qatnr6cot,conventional,yes,0,Request,10,spanish,S3,conventional,request,1,Yes,1,31
872,1507,70,5qatnr6cot,conventional,yes,0,Request,8,piano,S3,conventional,request,1,No,1,32
873,567,72,5qatnr6cot,conventional,yes,0,Request,11,window,S3,conventional,request,1,Yes,1,33
874,807,74,5qatnr6cot,conventional,yes,0,Request,3,box,S3,conventional,request,1,Yes,1,34
875,566,76,5qatnr6cot,conventional,yes,1,Non-Request,8,piano,S3,conventional,literal,1,Yes,0,35
876,513,78,5qatnr6cot,conventional,yes,1,Non-Request,4,door,S3,conventional,literal,1,Yes,0,36
877,500,80,5qatnr6cot,conventional,yes,0,Request,8,piano,S5,conventional,request,1,No,1,37
878,481,82,5qatnr6cot,conventional,yes,0,Request,3,box,S5,conventional,request,1,No,1,38
879,512,84,5qatnr6cot,conventional,yes,0,Non-Request,12,temperature,S5,conventional,request,0,No,1,39
880,550,86,5qatnr6cot,conventional,yes,0,Non-Request,8,piano,S5,conventional,request,0,Yes,1,40
881,569,88,5qatnr6cot,conventional,yes,0,Request,4,door,S5,conventional,request,1,No,1,41
882,556,90,5qatnr6cot,conventional,yes,0,Non-Request,10,spanish,S5,conventional,request,0,No,1,42
883,676,92,5qatnr6cot,conventional,yes,0,Request,11,window,S5,conventional,request,1,No,1,43
884,797,94,5qatnr6cot,conventional,yes,0,Non-Request,11,window,S5,conventional,request,0,Yes,1,44
885,1080,96,5qatnr6cot,conventional,yes,0,Request,12,temperature,S5,conventional,request,1,Yes,1,45
886,636,98,5qatnr6cot,conventional,yes,0,Non-Request,4,door,S5,conventional,request,0,Yes,1,46
887,405,100,5qatnr6cot,conventional,yes,1,Request,10,spanish,S5,conventional,literal,0,Yes,0,47
888,640,102,5qatnr6cot,conventional,yes,0,Non-Request,3,box,S5,conventional,request,0,Yes,1,48
889,590,104,5qatnr6cot,conventional,yes,0,Non-Request,12,temperature,S1,conventional,request,0,No,1,49
890,379,106,5qatnr6cot,conventional,yes,1,Non-Request,8,piano,S1,conventional,literal,1,No,0,50
891,395,108,5qatnr6cot,conventional,yes,0,Request,12,temperature,S1,conventional,request,1,Yes,1,51
892,552,110,5qatnr6cot,conventional,yes,0,Request,10,spanish,S1,conventional,request,1,No,1,52
893,683,112,5qatnr6cot,conventional,yes,0,Request,8,piano,S1,conventional,request,1,Yes,1,53
894,440,114,5qatnr6cot,conventional,yes,1,Non-Request,11,window,S1,conventional,literal,1,No,0,54
895,497,116,5qatnr6cot,conventional,yes,1,Non-Request,3,box,S1,conventional,literal,1,No,0,55
896,942,118,5qatnr6cot,conventional,yes,0,Non-Request,4,door,S1,conventional,request,0,No,1,56
897,1407,120,5qatnr6cot,conventional,yes,0,Request,4,door,S1,conventional,request,1,Yes,1,57
898,627,122,5qatnr6cot,conventional,yes,0,Request,3,box,S1,conventional,request,1,Yes,1,58
899,565,124,5qatnr6cot,conventional,yes,0,Non-Request,10,spanish,S1,conventional,request,0,Yes,1,59
900,989,126,5qatnr6cot,conventional,yes,0,Request,11,window,S1,conventional,request,1,Yes,1,60
901,3577,8,5wl5m4a06y,non_conventional,yes,1,Request,6,office,S1,nonconventional,literal,0,No,0,1
902,1994,10,5wl5m4a06y,non_conventional,yes,1,Non-Request,2,back,S1,nonconventional,literal,1,No,0,2
903,1833,12,5wl5m4a06y,non_conventional,yes,1,Non-Request,5,laptop,S1,nonconventional,literal,1,No,0,3
904,2545,14,5wl5m4a06y,non_conventional,yes,1,Non-Request,6,office,S1,nonconventional,literal,1,Yes,0,4
905,1612,16,5wl5m4a06y,non_conventional,yes,1,Request,5,laptop,S1,nonconventional,literal,0,Yes,0,5
906,968,18,5wl5m4a06y,non_conventional,yes,1,Non-Request,9,soup,S1,nonconventional,literal,1,No,0,6
907,1790,20,5wl5m4a06y,non_conventional,yes,1,Request,1,car,S1,nonconventional,literal,0,No,0,7
908,623,22,5wl5m4a06y,non_conventional,yes,1,Request,2,back,S1,nonconventional,literal,0,Yes,0,8
909,954,24,5wl5m4a06y,non_conventional,yes,1,Request,7,phone,S1,nonconventional,literal,0,No,0,9
910,969,26,5wl5m4a06y,non_conventional,yes,1,Non-Request,7,phone,S1,nonconventional,literal,1,Yes,0,10
911,1284,28,5wl5m4a06y,non_conventional,yes,1,Non-Request,1,car,S1,nonconventional,literal,1,Yes,0,11
912,902,30,5wl5m4a06y,non_conventional,yes,1,Request,9,soup,S1,nonconventional,literal,0,Yes,0,12
913,1042,32,5wl5m4a06y,non_conventional,yes,1,Request,1,car,S3,nonconventional,literal,0,No,0,13
914,1106,34,5wl5m4a06y,non_conventional,yes,1,Non-Request,6,office,S3,nonconventional,literal,1,No,0,14
915,862,36,5wl5m4a06y,non_conventional,yes,1,Non-Request,2,back,S3,nonconventional,literal,1,No,0,15
916,907,38,5wl5m4a06y,non_conventional,yes,1,Request,2,back,S3,nonconventional,literal,0,Yes,0,16
917,1904,40,5wl5m4a06y,non_conventional,yes,1,Request,5,laptop,S3,nonconventional,literal,0,No,0,17
918,654,42,5wl5m4a06y,non_conventional,yes,1,Request,7,phone,S3,nonconventional,literal,0,No,0,18
919,628,44,5wl5m4a06y,non_conventional,yes,1,Non-Request,5,laptop,S3,nonconventional,literal,1,Yes,0,19
920,666,46,5wl5m4a06y,non_conventional,yes,1,Non-Request,9,soup,S3,nonconventional,literal,1,No,0,20
921,494,48,5wl5m4a06y,non_conventional,yes,1,Request,6,office,S3,nonconventional,literal,0,Yes,0,21
922,1003,50,5wl5m4a06y,non_conventional,yes,1,Non-Request,7,phone,S3,nonconventional,literal,1,Yes,0,22
923,944,52,5wl5m4a06y,non_conventional,yes,1,Non-Request,1,car,S3,nonconventional,literal,1,Yes,0,23
924,955,54,5wl5m4a06y,non_conventional,yes,1,Request,9,soup,S3,nonconventional,literal,0,Yes,0,24
925,708,56,5wl5m4a06y,non_conventional,yes,1,Non-Request,9,soup,S5,nonconventional,literal,1,No,0,25
926,522,58,5wl5m4a06y,non_conventional,yes,1,Request,6,office,S5,nonconventional,literal,0,No,0,26
927,685,60,5wl5m4a06y,non_conventional,yes,1,Non-Request,5,laptop,S5,nonconventional,literal,1,No,0,27
928,600,62,5wl5m4a06y,non_conventional,yes,1,Non-Request,2,back,S5,nonconventional,literal,1,No,0,28
929,509,64,5wl5m4a06y,non_conventional,yes,1,Non-Request,1,car,S5,nonconventional,literal,1,No,0,29
930,405,66,5wl5m4a06y,non_conventional,yes,1,Request,2,back,S5,nonconventional,literal,0,Yes,0,30
931,519,68,5wl5m4a06y,non_conventional,yes,1,Request,7,phone,S5,nonconventional,literal,0,No,0,31
932,6222,70,5wl5m4a06y,non_conventional,yes,1,Request,1,car,S5,nonconventional,literal,0,Yes,0,32
933,679,72,5wl5m4a06y,non_conventional,yes,1,Request,9,soup,S5,nonconventional,literal,0,Yes,0,33
934,856,74,5wl5m4a06y,non_conventional,yes,1,Non-Request,7,phone,S5,nonconventional,literal,1,Yes,0,34
935,762,76,5wl5m4a06y,non_conventional,yes,1,Request,5,laptop,S5,nonconventional,literal,0,Yes,0,35
936,796,78,5wl5m4a06y,non_conventional,yes,1,Non-Request,6,office,S5,nonconventional,literal,1,Yes,0,36
937,565,80,5wl5m4a06y,non_conventional,yes,1,Request,6,office,S4,nonconventional,literal,0,No,0,37
938,709,82,5wl5m4a06y,non_conventional,yes,1,Non-Request,9,soup,S4,nonconventional,literal,1,No,0,38
939,588,84,5wl5m4a06y,non_conventional,yes,1,Non-Request,6,office,S4,nonconventional,literal,1,Yes,0,39
940,5216,86,5wl5m4a06y,non_conventional,yes,0,Request,9,soup,S4,nonconventional,request,1,Yes,1,40
941,6497,88,5wl5m4a06y,non_conventional,yes,1,Request,5,laptop,S4,nonconventional,literal,0,No,0,41
942,377,90,5wl5m4a06y,non_conventional,yes,1,Request,7,phone,S4,nonconventional,literal,0,No,0,42
943,341,92,5wl5m4a06y,non_conventional,yes,1,Non-Request,7,phone,S4,nonconventional,literal,1,Yes,0,43
944,677,94,5wl5m4a06y,non_conventional,yes,1,Request,2,back,S4,nonconventional,literal,0,No,0,44
945,427,96,5wl5m4a06y,non_conventional,yes,1,Non-Request,1,car,S4,nonconventional,literal,1,No,0,45
946,540,98,5wl5m4a06y,non_conventional,yes,1,Request,1,car,S4,nonconventional,literal,0,Yes,0,46
947,260,100,5wl5m4a06y,non_conventional,yes,1,Non-Request,5,laptop,S4,nonconventional,literal,1,Yes,0,47
948,283,102,5wl5m4a06y,non_conventional,yes,1,Non-Request,2,back,S4,nonconventional,literal,1,Yes,0,48
949,3525,104,5wl5m4a06y,non_conventional,yes,1,Non-Request,5,laptop,S2,nonconventional,literal,1,No,0,49
950,720,106,5wl5m4a06y,non_conventional,yes,1,Non-Request,2,back,S2,nonconventional,literal,1,No,0,50
951,737,108,5wl5m4a06y,non_conventional,yes,1,Request,7,phone,S2,nonconventional,literal,0,No,0,51
952,7039,110,5wl5m4a06y,non_conventional,yes,1,Non-Request,1,car,S2,nonconventional,literal,1,No,0,52
953,205,112,5wl5m4a06y,non_conventional,yes,1,Request,2,back,S2,nonconventional,literal,0,Yes,0,53
954,596,114,5wl5m4a06y,non_conventional,yes,1,Non-Request,9,soup,S2,nonconventional,literal,1,No,0,54
955,477,116,5wl5m4a06y,non_conventional,yes,1,Request,1,car,S2,nonconventional,literal,0,Yes,0,55
956,911,118,5wl5m4a06y,non_conventional,yes,1,Non-Request,6,office,S2,nonconventional,literal,1,No,0,56
957,537,120,5wl5m4a06y,non_conventional,yes,1,Non-Request,7,phone,S2,nonconventional,literal,1,Yes,0,57
958,469,122,5wl5m4a06y,non_conventional,yes,1,Request,9,soup,S2,nonconventional,literal,0,Yes,0,58
959,2510,124,5wl5m4a06y,non_conventional,yes,1,Request,5,laptop,S2,nonconventional,literal,0,Yes,0,59
960,357,126,5wl5m4a06y,non_conventional,yes,1,Request,6,office,S2,nonconventional,literal,0,Yes,0,60
961,2519,8,622eoeq380,conventional,yes,0,Non-Request,10,spanish,S2,conventional,request,0,No,1,1
962,728,10,622eoeq380,conventional,yes,0,Non-Request,4,door,S2,conventional,request,0,No,1,2
963,1008,12,622eoeq380,conventional,yes,0,Non-Request,12,temperature,S2,conventional,request,0,No,1,3
964,587,14,622eoeq380,conventional,yes,0,Non-Request,11,window,S2,conventional,request,0,No,1,4
965,705,16,622eoeq380,conventional,yes,0,Request,8,piano,S2,conventional,request,1,No,1,5
966,2943,18,622eoeq380,conventional,yes,1,Non-Request,8,piano,S2,conventional,literal,1,Yes,0,6
967,638,20,622eoeq380,conventional,yes,0,Request,3,box,S2,conventional,request,1,No,1,7
968,513,22,622eoeq380,conventional,yes,0,Request,11,window,S2,conventional,request,1,Yes,1,8
969,3971,24,622eoeq380,conventional,yes,1,Request,12,temperature,S2,conventional,literal,0,Yes,0,9
970,779,26,622eoeq380,conventional,yes,0,Request,10,spanish,S2,conventional,request,1,Yes,1,10
971,714,28,622eoeq380,conventional,yes,0,Request,4,door,S2,conventional,request,1,Yes,1,11
972,1756,30,622eoeq380,conventional,yes,1,Non-Request,3,box,S2,conventional,literal,1,Yes,0,12
973,499,32,622eoeq380,conventional,yes,1,Non-Request,12,temperature,S5,conventional,literal,1,No,0,13
974,1235,34,622eoeq380,conventional,yes,1,Request,4,door,S5,conventional,literal,0,No,0,14
975,1689,36,622eoeq380,conventional,yes,0,Request,12,temperature,S5,conventional,request,1,Yes,1,15
976,1314,38,622eoeq380,conventional,yes,1,Non-Request,3,box,S5,conventional,literal,1,No,0,16
977,514,40,622eoeq380,conventional,yes,1,Non-Request,4,door,S5,conventional,literal,1,Yes,0,17
978,2917,42,622eoeq380,conventional,yes,1,Request,8,piano,S5,conventional,literal,0,No,0,18
979,1200,44,622eoeq380,conventional,yes,1,Non-Request,10,spanish,S5,conventional,literal,1,No,0,19
980,1194,46,622eoeq380,conventional,yes,1,Non-Request,8,piano,S5,conventional,literal,1,Yes,0,20
981,1293,48,622eoeq380,conventional,yes,1,Non-Request,11,window,S5,conventional,literal,1,No,0,21
982,532,50,622eoeq380,conventional,yes,0,Request,11,window,S5,conventional,request,1,Yes,1,22
983,286566,52,622eoeq380,conventional,yes,0,Request,10,spanish,S5,conventional,request,1,Yes,1,23
984,2128,54,622eoeq380,conventional,yes,1,Request,3,box,S5,conventional,literal,0,Yes,0,24
985,702,56,622eoeq380,conventional,yes,0,Request,12,temperature,S3,conventional,request,1,No,1,25
986,1288,58,622eoeq380,conventional,yes,0,Non-Request,3,box,S3,conventional,request,0,No,1,26
987,648,60,622eoeq380,conventional,yes,1,Non-Request,11,window,S3,conventional,literal,1,No,0,27
988,765,62,622eoeq380,conventional,yes,0,Request,11,window,S3,conventional,request,1,Yes,1,28
989,1371,64,622eoeq380,conventional,yes,1,Non-Request,4,door,S3,conventional,literal,1,No,0,29
990,2618,66,622eoeq380,conventional,yes,0,Request,4,door,S3,conventional,request,1,Yes,1,30
991,748,68,622eoeq380,conventional,yes,0,Request,10,spanish,S3,conventional,request,1,No,1,31
992,496,70,622eoeq380,conventional,yes,1,Non-Request,10,spanish,S3,conventional,literal,1,Yes,0,32
993,459,72,622eoeq380,conventional,yes,1,Non-Request,12,temperature,S3,conventional,literal,1,Yes,0,33
994,584,74,622eoeq380,conventional,yes,1,Non-Request,8,piano,S3,conventional,literal,1,No,0,34
995,1180,76,622eoeq380,conventional,yes,0,Request,8,piano,S3,conventional,request,1,Yes,1,35
996,982,78,622eoeq380,conventional,yes,0,Request,3,box,S3,conventional,request,1,Yes,1,36
997,5941,80,622eoeq380,conventional,yes,0,Non-Request,10,spanish,S1,conventional,request,0,No,1,37
998,9330,82,622eoeq380,conventional,yes,0,Request,8,piano,S1,conventional,request,1,No,1,38
999,2025,84,622eoeq380,conventional,yes,0,Request,12,temperature,S1,conventional,request,1,No,1,39
1000,504,86,622eoeq380,conventional,yes,0,Request,3,box,S1,conventional,request,1,No,1,40
1001,512,88,622eoeq380,conventional,yes,0,Non-Request,3,box,S1,conventional,request,0,Yes,1,41
1002,1833,90,622eoeq380,conventional,yes,1,Non-Request,11,window,S1,conventional,literal,1,No,0,42
1003,518,92,622eoeq380,conventional,yes,1,Non-Request,8,piano,S1,conventional,literal,1,Yes,0,43
1004,1524,94,622eoeq380,conventional,yes,0,Request,4,door,S1,conventional,request,1,No,1,44
1005,951,96,622eoeq380,conventional,yes,0,Non-Request,12,temperature,S1,conventional,request,0,Yes,1,45
1006,1165,98,622eoeq380,conventional,yes,1,Non-Request,4,door,S1,conventional,literal,1,Yes,0,46
1007,3156,100,622eoeq380,conventional,yes,0,Request,10,spanish,S1,conventional,request,1,Yes,1,47
1008,4202,102,622eoeq380,conventional,yes,0,Request,11,window,S1,conventional,request,1,Yes,1,48
1009,957,104,622eoeq380,conventional,yes,0,Request,10,spanish,S4,conventional,request,1,No,1,49
