,X,rt,trial_type,trial_index,time_elapsed,subject,group,passed_test,stimulus,button_pressed,answer,stimNum,topic,speaker,form,response,correct,Order
1,7,6332,audio-button-response,7,122831,13725,group1,yes,prosody_paired_samples/KatieS/IR_Literal_door.wav,0,first,4,door,S3,conventional,first,1,1
2,8,6910,audio-button-response,8,129742,13725,group1,yes,prosody_paired_samples/KatieS/IR_Literal_box.wav,0,first,3,box,S3,conventional,first,1,2
3,9,6035,audio-button-response,9,135783,13725,group1,yes,prosody_paired_samples/KatieS/Literal_IR_window.wav,1,second,11,window,S3,conventional,second,1,3
4,10,12021,audio-button-response,10,147806,13725,group1,yes,prosody_paired_samples/KatieS/IR_Literal_laptop.wav,1,first,5,laptop,S3,non-conventional,second,0,4
5,11,6605,audio-button-response,11,154413,13725,group1,yes,prosody_paired_samples/KatieS/Literal_IR_temp.wav,1,second,12,temperature,S3,conventional,second,1,5
6,12,6153,audio-button-response,12,160568,13725,group1,yes,prosody_paired_samples/KatieS/IR_Literal_Spanish.wav,0,first,10,spanish,S3,conventional,first,1,6
7,13,11059,audio-button-response,13,171628,13725,group1,yes,prosody_paired_samples/KatieS/Literal_IR_soup.wav,1,second,9,soup,S3,non-conventional,second,1,7
8,14,9527,audio-button-response,14,181159,13725,group1,yes,prosody_paired_samples/KatieS/IR_Literal_back.wav,0,first,2,back,S3,non-conventional,first,1,8
9,15,9100,audio-button-response,15,190262,13725,group1,yes,prosody_paired_samples/KatieS/Literal_IR_phone.wav,0,second,7,phone,S3,non-conventional,first,0,9
10,16,7726,audio-button-response,16,197990,13725,group1,yes,prosody_paired_samples/KatieS/Literal_IR_office.wav,1,second,6,office,S3,non-conventional,second,1,10
11,17,6897,audio-button-response,17,204890,13725,group1,yes,prosody_paired_samples/KatieS/Literal_IR_car.wav,1,second,1,car,S3,non-conventional,second,1,11
12,18,6024,audio-button-response,18,210917,13725,group1,yes,prosody_paired_samples/KatieS/IR_Literal_piano.wav,0,first,8,piano,S3,conventional,first,1,12
13,19,7152,audio-button-response,19,218069,13725,group1,yes,prosody_paired_samples/MaiyiY/literal_IR_piano.wav,1,second,8,piano,S4,conventional,second,1,13
14,20,8353,audio-button-response,20,226424,13725,group1,yes,prosody_paired_samples/MaiyiY/IR_literal_temp.wav,0,first,12,temperature,S4,conventional,first,1,14
15,21,8489,audio-button-response,21,234921,13725,group1,yes,prosody_paired_samples/MaiyiY/literal_IR_car.wav,1,second,1,car,S4,non-conventional,second,1,15
16,22,8862,audio-button-response,22,243799,13725,group1,yes,prosody_paired_samples/MaiyiY/literal_IR_laptop.wav,0,second,5,laptop,S4,non-conventional,first,0,16
17,23,8118,audio-button-response,23,251934,13725,group1,yes,prosody_paired_samples/MaiyiY/literal_IR_window.wav,1,second,11,window,S4,conventional,second,1,17
18,24,6255,audio-button-response,24,258190,13725,group1,yes,prosody_paired_samples/MaiyiY/IR_literal_door.wav,0,first,4,door,S4,conventional,first,1,18
19,25,6237,audio-button-response,25,264429,13725,group1,yes,prosody_paired_samples/MaiyiY/literal_IR_office.wav,0,second,6,office,S4,non-conventional,first,0,19
20,26,8277,audio-button-response,26,272708,13725,group1,yes,prosody_paired_samples/MaiyiY/IR_literal_Spanish.wav,0,first,10,spanish,S4,conventional,first,1,20
21,27,10788,audio-button-response,27,283501,13725,group1,yes,prosody_paired_samples/MaiyiY/IR_literal_box.wav,0,first,3,box,S4,conventional,first,1,21
22,28,10735,audio-button-response,28,294238,13725,group1,yes,prosody_paired_samples/MaiyiY/IR_literal_back.wav,0,first,2,back,S4,non-conventional,first,1,22
23,29,8973,audio-button-response,29,303212,13725,group1,yes,prosody_paired_samples/MaiyiY/IR_literal_phone.wav,1,first,7,phone,S4,non-conventional,second,0,23
24,30,9215,audio-button-response,30,312429,13725,group1,yes,prosody_paired_samples/MaiyiY/literal_IR_soup.wav,0,second,9,soup,S4,non-conventional,first,0,24
25,31,7267,audio-button-response,31,319700,13725,group1,yes,prosody_paired_samples/KarenL/literal_IR_soup.wav,0,second,9,soup,S2,non-conventional,first,0,25
26,32,12128,audio-button-response,32,331833,13725,group1,yes,prosody_paired_samples/KarenL/literal_IR_door.wav,1,second,4,door,S2,conventional,second,1,26
27,33,10863,audio-button-response,33,342698,13725,group1,yes,prosody_paired_samples/KarenL/IR_literal_temp.wav,0,first,12,temperature,S2,conventional,first,1,27
28,34,8020,audio-button-response,34,350720,13725,group1,yes,prosody_paired_samples/KarenL/IR_literal_piano.wav,0,first,8,piano,S2,conventional,first,1,28
29,35,7016,audio-button-response,35,357742,13725,group1,yes,prosody_paired_samples/KarenL/literal_IR_car.wav,1,second,1,car,S2,non-conventional,second,1,29
30,36,9273,audio-button-response,36,367018,13725,group1,yes,prosody_paired_samples/KarenL/IR_literal_office.wav,0,first,6,office,S2,non-conventional,first,1,30
31,37,7775,audio-button-response,37,374796,13725,group1,yes,prosody_paired_samples/KarenL/literal_IR_back.wav,0,second,2,back,S2,non-conventional,first,0,31
32,38,6922,audio-button-response,38,381719,13725,group1,yes,prosody_paired_samples/KarenL/IR_literal_box.wav,0,first,3,box,S2,conventional,first,1,32
33,39,6594,audio-button-response,39,388315,13725,group1,yes,prosody_paired_samples/KarenL/IR_literal_Spanish.wav,0,first,10,spanish,S2,conventional,first,1,33
34,40,8085,audio-button-response,40,396402,13725,group1,yes,prosody_paired_samples/KarenL/IR_literal_phone.wav,0,first,7,phone,S2,non-conventional,first,1,34
35,41,6168,audio-button-response,41,402572,13725,group1,yes,prosody_paired_samples/KarenL/literal_IR_laptop.wav,0,second,5,laptop,S2,non-conventional,first,0,35
36,42,6121,audio-button-response,42,408695,13725,group1,yes,prosody_paired_samples/KarenL/literal_IR_window.wav,0,second,11,window,S2,conventional,first,0,36
37,43,6116,audio-button-response,43,414813,13725,group1,yes,prosody_paired_samples/DannyK/IR_literal_phone.wav,0,first,7,phone,S1,non-conventional,first,1,37
38,44,18806,audio-button-response,44,433621,13725,group1,yes,prosody_paired_samples/DannyK/literal_IR_back.wav,1,second,2,back,S1,non-conventional,second,1,38
39,45,8122,audio-button-response,45,441746,13725,group1,yes,prosody_paired_samples/DannyK/literal_IR_office.wav,0,second,6,office,S1,non-conventional,first,0,39
40,46,15614,audio-button-response,46,457361,13725,group1,yes,prosody_paired_samples/DannyK/IR_literal_soup.wav,0,first,9,soup,S1,non-conventional,first,1,40
41,47,17867,audio-button-response,47,475230,13725,group1,yes,prosody_paired_samples/DannyK/literal_IR_door.wav,1,second,4,door,S1,conventional,second,1,41
42,48,11218,audio-button-response,48,486450,13725,group1,yes,prosody_paired_samples/DannyK/IR_literal_Spanish.wav,1,first,10,spanish,S1,conventional,second,0,42
43,49,7128,audio-button-response,49,493580,13725,group1,yes,prosody_paired_samples/DannyK/literal_IR_piano.wav,1,second,8,piano,S1,conventional,second,1,43
44,50,7337,audio-button-response,50,500919,13725,group1,yes,prosody_paired_samples/DannyK/IR_literal_laptop.wav,1,first,5,laptop,S1,non-conventional,second,0,44
45,51,10899,audio-button-response,51,511821,13725,group1,yes,prosody_paired_samples/DannyK/IR_literal_temp.wav,1,first,12,temperature,S1,conventional,second,0,45
46,52,5781,audio-button-response,52,517604,13725,group1,yes,prosody_paired_samples/DannyK/IR_literal_box.wav,0,first,3,box,S1,conventional,first,1,46
47,53,7062,audio-button-response,53,524669,13725,group1,yes,prosody_paired_samples/DannyK/literal_IR_window.wav,1,second,11,window,S1,conventional,second,1,47
48,54,6690,audio-button-response,54,531360,13725,group1,yes,prosody_paired_samples/DannyK/literal_IR_car.wav,1,second,1,car,S1,non-conventional,second,1,48
49,55,7446,audio-button-response,55,538812,13725,group1,yes,prosody_paired_samples/NimishP/IR_Literal_back.wav,0,first,2,back,S5,non-conventional,first,1,49
50,56,6518,audio-button-response,56,545334,13725,group1,yes,prosody_paired_samples/NimishP/Literal_IR_car.wav,1,second,1,car,S5,non-conventional,second,1,50
51,57,5584,audio-button-response,57,550921,13725,group1,yes,prosody_paired_samples/NimishP/Literal_IR_door.wav,1,second,4,door,S5,conventional,second,1,51
52,58,6578,audio-button-response,58,557501,13725,group1,yes,prosody_paired_samples/NimishP/Literal_IR_soup.wav,1,second,9,soup,S5,non-conventional,second,1,52
53,59,8325,audio-button-response,59,565828,13725,group1,yes,prosody_paired_samples/NimishP/IR_Literal_box.wav,0,first,3,box,S5,conventional,first,1,53
54,60,6543,audio-button-response,60,572374,13725,group1,yes,prosody_paired_samples/NimishP/IR_Literal_office.wav,0,first,6,office,S5,non-conventional,first,1,54
55,61,8637,audio-button-response,61,581016,13725,group1,yes,prosody_paired_samples/NimishP/Literal_IR_Spanish.wav,0,second,10,spanish,S5,conventional,first,0,55
56,62,6365,audio-button-response,62,587384,13725,group1,yes,prosody_paired_samples/NimishP/Literal_IR_temp.wav,1,second,12,temperature,S5,conventional,second,1,56
57,63,9574,audio-button-response,63,596959,13725,group1,yes,prosody_paired_samples/NimishP/IR_Literal_piano.wav,0,first,8,piano,S5,conventional,first,1,57
58,64,5831,audio-button-response,64,602792,13725,group1,yes,prosody_paired_samples/NimishP/IR_Literal_phone.wav,0,first,7,phone,S5,non-conventional,first,1,58
59,65,6934,audio-button-response,65,609729,13725,group1,yes,prosody_paired_samples/NimishP/Literal_IR_laptop.wav,1,second,5,laptop,S5,non-conventional,second,1,59
60,66,7777,audio-button-response,66,617507,13725,group1,yes,prosody_paired_samples/NimishP/IR_Literal_window.wav,0,first,11,window,S5,conventional,first,1,60
61,78,10660,audio-button-response,7,110815,14172,group3,yes,prosody_paired_samples/DannyK/IR_literal_car.wav,0,first,1,car,S1,non-conventional,first,1,1
62,79,9999,audio-button-response,8,120814,14172,group3,yes,prosody_paired_samples/DannyK/literal_IR_window.wav,1,second,11,window,S1,conventional,second,1,2
63,80,6005,audio-button-response,9,126820,14172,group3,yes,prosody_paired_samples/DannyK/literal_IR_Spanish.wav,0,second,10,spanish,S1,conventional,first,0,3
64,81,6058,audio-button-response,10,132879,14172,group3,yes,prosody_paired_samples/DannyK/IR_literal_temp.wav,0,first,12,temperature,S1,conventional,first,1,4
65,82,5947,audio-button-response,11,138827,14172,group3,yes,prosody_paired_samples/DannyK/IR_literal_door.wav,0,first,4,door,S1,conventional,first,1,5
66,83,7296,audio-button-response,12,146124,14172,group3,yes,prosody_paired_samples/DannyK/IR_literal_soup.wav,0,first,9,soup,S1,non-conventional,first,1,6
67,84,5947,audio-button-response,13,152071,14172,group3,yes,prosody_paired_samples/DannyK/literal_IR_laptop.wav,0,second,5,laptop,S1,non-conventional,first,0,7
68,85,5697,audio-button-response,14,157768,14172,group3,yes,prosody_paired_samples/DannyK/literal_IR_piano.wav,1,second,8,piano,S1,conventional,second,1,8
69,86,7035,audio-button-response,15,164803,14172,group3,yes,prosody_paired_samples/DannyK/IR_literal_back.wav,0,first,2,back,S1,non-conventional,first,1,9
70,87,5951,audio-button-response,16,170754,14172,group3,yes,prosody_paired_samples/DannyK/literal_IR_office.wav,0,second,6,office,S1,non-conventional,first,0,10
71,88,5564,audio-button-response,17,176319,14172,group3,yes,prosody_paired_samples/DannyK/literal_IR_phone.wav,0,second,7,phone,S1,non-conventional,first,0,11
72,89,5500,audio-button-response,18,181819,14172,group3,yes,prosody_paired_samples/DannyK/IR_literal_box.wav,0,first,3,box,S1,conventional,first,1,12
73,90,9026,audio-button-response,19,190845,14172,group3,yes,prosody_paired_samples/KatieS/Literal_IR_laptop.wav,1,second,5,laptop,S3,non-conventional,second,1,13
74,91,4885,audio-button-response,20,195730,14172,group3,yes,prosody_paired_samples/KatieS/IR_Literal_window.wav,0,first,11,window,S3,conventional,first,1,14
75,92,6284,audio-button-response,21,202014,14172,group3,yes,prosody_paired_samples/KatieS/IR_Literal_soup.wav,1,first,9,soup,S3,non-conventional,second,0,15
76,93,7082,audio-button-response,22,209096,14172,group3,yes,prosody_paired_samples/KatieS/IR_Literal_back.wav,0,first,2,back,S3,non-conventional,first,1,16
77,94,4618,audio-button-response,23,213715,14172,group3,yes,prosody_paired_samples/KatieS/IR_Literal_box.wav,0,first,3,box,S3,conventional,first,1,17
78,95,5741,audio-button-response,24,219458,14172,group3,yes,prosody_paired_samples/KatieS/IR_Literal_temp.wav,0,first,12,temperature,S3,conventional,first,1,18
79,96,6866,audio-button-response,25,226324,14172,group3,yes,prosody_paired_samples/KatieS/IR_Literal_Spanish.wav,0,first,10,spanish,S3,conventional,first,1,19
80,97,8971,audio-button-response,26,235295,14172,group3,yes,prosody_paired_samples/KatieS/Literal_IR_door.wav,1,second,4,door,S3,conventional,second,1,20
81,98,7942,audio-button-response,27,243237,14172,group3,yes,prosody_paired_samples/KatieS/Literal_IR_piano.wav,1,second,8,piano,S3,conventional,second,1,21
82,99,7122,audio-button-response,28,250359,14172,group3,yes,prosody_paired_samples/KatieS/Literal_IR_phone.wav,0,second,7,phone,S3,non-conventional,first,0,22
83,100,5693,audio-button-response,29,256052,14172,group3,yes,prosody_paired_samples/KatieS/Literal_IR_office.wav,1,second,6,office,S3,non-conventional,second,1,23
84,101,5717,audio-button-response,30,261769,14172,group3,yes,prosody_paired_samples/KatieS/Literal_IR_car.wav,1,second,1,car,S3,non-conventional,second,1,24
85,102,8117,audio-button-response,31,269887,14172,group3,yes,prosody_paired_samples/NimishP/IR_Literal_window.wav,1,first,11,window,S5,conventional,second,0,25
86,103,5732,audio-button-response,32,275619,14172,group3,yes,prosody_paired_samples/NimishP/IR_Literal_car.wav,0,first,1,car,S5,non-conventional,first,1,26
87,104,6627,audio-button-response,33,282246,14172,group3,yes,prosody_paired_samples/NimishP/Literal_IR_phone.wav,0,second,7,phone,S5,non-conventional,first,0,27
88,105,5311,audio-button-response,34,287558,14172,group3,yes,prosody_paired_samples/NimishP/Literal_IR_piano.wav,1,second,8,piano,S5,conventional,second,1,28
89,106,4969,audio-button-response,35,292527,14172,group3,yes,prosody_paired_samples/NimishP/Literal_IR_temp.wav,1,second,12,temperature,S5,conventional,second,1,29
90,107,6153,audio-button-response,36,298680,14172,group3,yes,prosody_paired_samples/NimishP/IR_Literal_back.wav,0,first,2,back,S5,non-conventional,first,1,30
91,108,5604,audio-button-response,37,304284,14172,group3,yes,prosody_paired_samples/NimishP/IR_Literal_box.wav,0,first,3,box,S5,conventional,first,1,31
92,109,5629,audio-button-response,38,309914,14172,group3,yes,prosody_paired_samples/NimishP/Literal_IR_office.wav,0,second,6,office,S5,non-conventional,first,0,32
93,110,5823,audio-button-response,39,315737,14172,group3,yes,prosody_paired_samples/NimishP/IR_Literal_Spanish.wav,0,first,10,spanish,S5,conventional,first,1,33
94,111,6360,audio-button-response,40,322098,14172,group3,yes,prosody_paired_samples/NimishP/IR_Literal_laptop.wav,0,first,5,laptop,S5,non-conventional,first,1,34
95,112,5997,audio-button-response,41,328095,14172,group3,yes,prosody_paired_samples/NimishP/Literal_IR_soup.wav,1,second,9,soup,S5,non-conventional,second,1,35
96,113,4361,audio-button-response,42,332456,14172,group3,yes,prosody_paired_samples/NimishP/Literal_IR_door.wav,1,second,4,door,S5,conventional,second,1,36
97,114,6223,audio-button-response,43,338680,14172,group3,yes,prosody_paired_samples/KarenL/IR_literal_piano.wav,1,first,8,piano,S2,conventional,second,0,37
98,115,6378,audio-button-response,44,345058,14172,group3,yes,prosody_paired_samples/KarenL/IR_literal_office.wav,0,first,6,office,S2,non-conventional,first,1,38
99,116,11970,audio-button-response,45,357028,14172,group3,yes,prosody_paired_samples/KarenL/IR_literal_Spanish.wav,1,first,10,spanish,S2,conventional,second,0,39
100,117,5339,audio-button-response,46,362368,14172,group3,yes,prosody_paired_samples/KarenL/literal_IR_box.wav,1,second,3,box,S2,conventional,second,1,40
101,118,4513,audio-button-response,47,366882,14172,group3,yes,prosody_paired_samples/KarenL/literal_IR_soup.wav,1,second,9,soup,S2,non-conventional,second,1,41
102,119,5373,audio-button-response,48,372255,14172,group3,yes,prosody_paired_samples/KarenL/IR_literal_back.wav,0,first,2,back,S2,non-conventional,first,1,42
103,120,6089,audio-button-response,49,378345,14172,group3,yes,prosody_paired_samples/KarenL/literal_IR_car.wav,0,second,1,car,S2,non-conventional,first,0,43
104,121,5790,audio-button-response,50,384135,14172,group3,yes,prosody_paired_samples/KarenL/IR_literal_temp.wav,1,first,12,temperature,S2,conventional,second,0,44
105,122,5689,audio-button-response,51,389824,14172,group3,yes,prosody_paired_samples/KarenL/IR_literal_door.wav,0,first,4,door,S2,conventional,first,1,45
106,123,4930,audio-button-response,52,394754,14172,group3,yes,prosody_paired_samples/KarenL/literal_IR_phone.wav,0,second,7,phone,S2,non-conventional,first,0,46
107,124,8514,audio-button-response,53,403268,14172,group3,yes,prosody_paired_samples/KarenL/literal_IR_laptop.wav,1,second,5,laptop,S2,non-conventional,second,1,47
108,125,6643,audio-button-response,54,409911,14172,group3,yes,prosody_paired_samples/KarenL/literal_IR_window.wav,1,second,11,window,S2,conventional,second,1,48
109,126,6194,audio-button-response,55,416105,14172,group3,yes,prosody_paired_samples/MaiyiY/literal_IR_laptop.wav,1,second,5,laptop,S4,non-conventional,second,1,49
110,127,7848,audio-button-response,56,423953,14172,group3,yes,prosody_paired_samples/MaiyiY/IR_literal_door.wav,0,first,4,door,S4,conventional,first,1,50
111,128,9435,audio-button-response,57,433389,14172,group3,yes,prosody_paired_samples/MaiyiY/literal_IR_office.wav,1,second,6,office,S4,non-conventional,second,1,51
112,129,5041,audio-button-response,58,438431,14172,group3,yes,prosody_paired_samples/MaiyiY/literal_IR_box.wav,1,second,3,box,S4,conventional,second,1,52
113,130,5998,audio-button-response,59,444430,14172,group3,yes,prosody_paired_samples/MaiyiY/literal_IR_car.wav,1,second,1,car,S4,non-conventional,second,1,53
114,131,6650,audio-button-response,60,451081,14172,group3,yes,prosody_paired_samples/MaiyiY/IR_literal_piano.wav,0,first,8,piano,S4,conventional,first,1,54
115,132,5101,audio-button-response,61,456184,14172,group3,yes,prosody_paired_samples/MaiyiY/IR_literal_soup.wav,0,first,9,soup,S4,non-conventional,first,1,55
116,133,6431,audio-button-response,62,462615,14172,group3,yes,prosody_paired_samples/MaiyiY/IR_literal_temp.wav,1,first,12,temperature,S4,conventional,second,0,56
117,134,5970,audio-button-response,63,468585,14172,group3,yes,prosody_paired_samples/MaiyiY/IR_literal_phone.wav,1,first,7,phone,S4,non-conventional,second,0,57
118,135,6040,audio-button-response,64,474625,14172,group3,yes,prosody_paired_samples/MaiyiY/IR_literal_Spanish.wav,1,first,10,spanish,S4,conventional,second,0,58
119,136,6966,audio-button-response,65,481592,14172,group3,yes,prosody_paired_samples/MaiyiY/literal_IR_window.wav,1,second,11,window,S4,conventional,second,1,59
120,137,5375,audio-button-response,66,486969,14172,group3,yes,prosody_paired_samples/MaiyiY/literal_IR_back.wav,1,second,2,back,S4,non-conventional,second,1,60
121,149,7350,audio-button-response,7,94332,15647,group2,yes,prosody_paired_samples/KatieS/IR_Literal_temp.wav,0,first,12,temperature,S3,conventional,first,1,1
122,150,8863,audio-button-response,8,103197,15647,group2,yes,prosody_paired_samples/KatieS/Literal_IR_piano.wav,1,second,8,piano,S3,conventional,second,1,2
123,151,8939,audio-button-response,9,112137,15647,group2,yes,prosody_paired_samples/KatieS/Literal_IR_phone.wav,1,second,7,phone,S3,non-conventional,second,1,3
124,152,8902,audio-button-response,10,121042,15647,group2,yes,prosody_paired_samples/KatieS/Literal_IR_back.wav,1,second,2,back,S3,non-conventional,second,1,4
125,153,6070,audio-button-response,11,127115,15647,group2,yes,prosody_paired_samples/KatieS/Literal_IR_soup.wav,0,second,9,soup,S3,non-conventional,first,0,5
126,154,5620,audio-button-response,12,132737,15647,group2,yes,prosody_paired_samples/KatieS/IR_Literal_Spanish.wav,0,first,10,spanish,S3,conventional,first,1,6
127,155,7846,audio-button-response,13,140585,15647,group2,yes,prosody_paired_samples/KatieS/IR_Literal_laptop.wav,0,first,5,laptop,S3,non-conventional,first,1,7
128,156,4950,audio-button-response,14,145537,15647,group2,yes,prosody_paired_samples/KatieS/Literal_IR_window.wav,1,second,11,window,S3,conventional,second,1,8
129,157,8967,audio-button-response,15,154506,15647,group2,yes,prosody_paired_samples/KatieS/Literal_IR_office.wav,0,second,6,office,S3,non-conventional,first,0,9
130,158,5989,audio-button-response,16,160497,15647,group2,yes,prosody_paired_samples/KatieS/IR_Literal_door.wav,0,first,4,door,S3,conventional,first,1,10
131,159,7285,audio-button-response,17,167788,15647,group2,yes,prosody_paired_samples/KatieS/IR_Literal_box.wav,0,first,3,box,S3,conventional,first,1,11
132,160,7066,audio-button-response,18,174858,15647,group2,yes,prosody_paired_samples/KatieS/IR_Literal_car.wav,0,first,1,car,S3,non-conventional,first,1,12
133,161,16301,audio-button-response,19,191163,15647,group2,yes,prosody_paired_samples/MaiyiY/literal_IR_laptop.wav,1,second,5,laptop,S4,non-conventional,second,1,13
134,162,5253,audio-button-response,20,196418,15647,group2,yes,prosody_paired_samples/MaiyiY/IR_literal_phone.wav,0,first,7,phone,S4,non-conventional,first,1,14
135,163,7548,audio-button-response,21,203970,15647,group2,yes,prosody_paired_samples/MaiyiY/IR_literal_back.wav,1,first,2,back,S4,non-conventional,second,0,15
136,164,9197,audio-button-response,22,213170,15647,group2,yes,prosody_paired_samples/MaiyiY/literal_IR_door.wav,1,second,4,door,S4,conventional,second,1,16
137,165,8182,audio-button-response,23,221355,15647,group2,yes,prosody_paired_samples/MaiyiY/IR_literal_window.wav,0,first,11,window,S4,conventional,first,1,17
138,166,7349,audio-button-response,24,228706,15647,group2,yes,prosody_paired_samples/MaiyiY/literal_IR_Spanish.wav,1,second,10,spanish,S4,conventional,second,1,18
139,167,5181,audio-button-response,25,233890,15647,group2,yes,prosody_paired_samples/MaiyiY/literal_IR_piano.wav,1,second,8,piano,S4,conventional,second,1,19
140,168,5230,audio-button-response,26,239123,15647,group2,yes,prosody_paired_samples/MaiyiY/IR_literal_box.wav,0,first,3,box,S4,conventional,first,1,20
141,169,5327,audio-button-response,27,244451,15647,group2,yes,prosody_paired_samples/MaiyiY/literal_IR_temp.wav,1,second,12,temperature,S4,conventional,second,1,21
142,170,6653,audio-button-response,28,251106,15647,group2,yes,prosody_paired_samples/MaiyiY/IR_literal_car.wav,0,first,1,car,S4,non-conventional,first,1,22
143,171,7525,audio-button-response,29,258634,15647,group2,yes,prosody_paired_samples/MaiyiY/literal_IR_office.wav,0,second,6,office,S4,non-conventional,first,0,23
144,172,1340976,audio-button-response,30,1599613,15647,group2,yes,prosody_paired_samples/MaiyiY/IR_literal_soup.wav,0,first,9,soup,S4,non-conventional,first,1,24
145,173,9044,audio-button-response,31,1608660,15647,group2,yes,prosody_paired_samples/NimishP/IR_Literal_temp.wav,1,first,12,temperature,S5,conventional,second,0,25
146,174,10981,audio-button-response,32,1619644,15647,group2,yes,prosody_paired_samples/NimishP/Literal_IR_office.wav,0,second,6,office,S5,non-conventional,first,0,26
147,175,4974,audio-button-response,33,1624619,15647,group2,yes,prosody_paired_samples/NimishP/Literal_IR_laptop.wav,1,second,5,laptop,S5,non-conventional,second,1,27
148,176,11326,audio-button-response,34,1635950,15647,group2,yes,prosody_paired_samples/NimishP/IR_Literal_door.wav,0,first,4,door,S5,conventional,first,1,28
149,177,12010,audio-button-response,35,1647964,15647,group2,yes,prosody_paired_samples/NimishP/Literal_IR_phone.wav,1,second,7,phone,S5,non-conventional,second,1,29
150,178,5981,audio-button-response,36,1653948,15647,group2,yes,prosody_paired_samples/NimishP/Literal_IR_soup.wav,1,second,9,soup,S5,non-conventional,second,1,30
151,179,6373,audio-button-response,37,1660323,15647,group2,yes,prosody_paired_samples/NimishP/Literal_IR_back.wav,0,second,2,back,S5,non-conventional,first,0,31
152,180,7365,audio-button-response,38,1667691,15647,group2,yes,prosody_paired_samples/NimishP/IR_Literal_window.wav,0,first,11,window,S5,conventional,first,1,32
153,181,7037,audio-button-response,39,1674731,15647,group2,yes,prosody_paired_samples/NimishP/IR_Literal_piano.wav,1,first,8,piano,S5,conventional,second,0,33
154,182,8997,audio-button-response,40,1683731,15647,group2,yes,prosody_paired_samples/NimishP/IR_Literal_Spanish.wav,0,first,10,spanish,S5,conventional,first,1,34
155,183,8295,audio-button-response,41,1692027,15647,group2,yes,prosody_paired_samples/NimishP/Literal_IR_box.wav,1,second,3,box,S5,conventional,second,1,35
156,184,12149,audio-button-response,42,1704179,15647,group2,yes,prosody_paired_samples/NimishP/IR_Literal_car.wav,0,first,1,car,S5,non-conventional,first,1,36
157,185,8286,audio-button-response,43,1712468,15647,group2,yes,prosody_paired_samples/KarenL/literal_IR_Spanish.wav,1,second,10,spanish,S2,conventional,second,1,37
158,186,14917,audio-button-response,44,1727389,15647,group2,yes,prosody_paired_samples/KarenL/IR_literal_back.wav,1,first,2,back,S2,non-conventional,second,0,38
159,187,5156,audio-button-response,45,1732548,15647,group2,yes,prosody_paired_samples/KarenL/literal_IR_box.wav,0,second,3,box,S2,conventional,first,0,39
160,188,5813,audio-button-response,46,1738363,15647,group2,yes,prosody_paired_samples/KarenL/IR_literal_temp.wav,1,first,12,temperature,S2,conventional,second,0,40
161,189,5646,audio-button-response,47,1744011,15647,group2,yes,prosody_paired_samples/KarenL/literal_IR_window.wav,0,second,11,window,S2,conventional,first,0,41
162,190,7062,audio-button-response,48,1751075,15647,group2,yes,prosody_paired_samples/KarenL/literal_IR_phone.wav,1,second,7,phone,S2,non-conventional,second,1,42
163,191,5886,audio-button-response,49,1756963,15647,group2,yes,prosody_paired_samples/KarenL/literal_IR_laptop.wav,0,second,5,laptop,S2,non-conventional,first,0,43
164,192,5471,audio-button-response,50,1762436,15647,group2,yes,prosody_paired_samples/KarenL/literal_IR_piano.wav,1,second,8,piano,S2,conventional,second,1,44
165,193,6164,audio-button-response,51,1768602,15647,group2,yes,prosody_paired_samples/KarenL/IR_literal_car.wav,0,first,1,car,S2,non-conventional,first,1,45
166,194,5464,audio-button-response,52,1774068,15647,group2,yes,prosody_paired_samples/KarenL/IR_literal_soup.wav,0,first,9,soup,S2,non-conventional,first,1,46
167,195,5534,audio-button-response,53,1779603,15647,group2,yes,prosody_paired_samples/KarenL/IR_literal_door.wav,0,first,4,door,S2,conventional,first,1,47
168,196,5605,audio-button-response,54,1785211,15647,group2,yes,prosody_paired_samples/KarenL/IR_literal_office.wav,1,first,6,office,S2,non-conventional,second,0,48
169,197,5709,audio-button-response,55,1790925,15647,group2,yes,prosody_paired_samples/DannyK/IR_literal_soup.wav,0,first,9,soup,S1,non-conventional,first,1,49
170,198,20341,audio-button-response,56,1811267,15647,group2,yes,prosody_paired_samples/DannyK/IR_literal_office.wav,1,first,6,office,S1,non-conventional,second,0,50
171,199,6581,audio-button-response,57,1817852,15647,group2,yes,prosody_paired_samples/DannyK/literal_IR_car.wav,0,second,1,car,S1,non-conventional,first,0,51
172,200,8542,audio-button-response,58,1826397,15647,group2,yes,prosody_paired_samples/DannyK/literal_IR_laptop.wav,1,second,5,laptop,S1,non-conventional,second,1,52
173,201,7972,audio-button-response,59,1834371,15647,group2,yes,prosody_paired_samples/DannyK/IR_literal_phone.wav,0,first,7,phone,S1,non-conventional,first,1,53
174,202,5517,audio-button-response,60,1839891,15647,group2,yes,prosody_paired_samples/DannyK/IR_literal_box.wav,1,first,3,box,S1,conventional,second,0,54
175,203,6758,audio-button-response,61,1846651,15647,group2,yes,prosody_paired_samples/DannyK/IR_literal_door.wav,0,first,4,door,S1,conventional,first,1,55
176,204,7215,audio-button-response,62,1853868,15647,group2,yes,prosody_paired_samples/DannyK/IR_literal_Spanish.wav,0,first,10,spanish,S1,conventional,first,1,56
177,205,6749,audio-button-response,63,1860621,15647,group2,yes,prosody_paired_samples/DannyK/literal_IR_window.wav,1,second,11,window,S1,conventional,second,1,57
178,206,8637,audio-button-response,64,1869260,15647,group2,yes,prosody_paired_samples/DannyK/literal_IR_back.wav,1,second,2,back,S1,non-conventional,second,1,58
179,207,10189,audio-button-response,65,1879452,15647,group2,yes,prosody_paired_samples/DannyK/literal_IR_piano.wav,0,second,8,piano,S1,conventional,first,0,59
180,208,8725,audio-button-response,66,1888180,15647,group2,yes,prosody_paired_samples/DannyK/literal_IR_temp.wav,1,second,12,temperature,S1,conventional,second,1,60
181,220,9674,audio-button-response,7,177760,16736,group2,yes,prosody_paired_samples/NimishP/Literal_IR_temp.wav,1,second,12,temperature,S5,conventional,second,1,1
182,221,8957,audio-button-response,8,186720,16736,group2,yes,prosody_paired_samples/NimishP/IR_Literal_laptop.wav,0,first,5,laptop,S5,non-conventional,first,1,2
183,222,9532,audio-button-response,9,196254,16736,group2,yes,prosody_paired_samples/NimishP/IR_Literal_box.wav,0,first,3,box,S5,conventional,first,1,3
184,223,7121,audio-button-response,10,203378,16736,group2,yes,prosody_paired_samples/NimishP/IR_Literal_window.wav,0,first,11,window,S5,conventional,first,1,4
185,224,6722,audio-button-response,11,210102,16736,group2,yes,prosody_paired_samples/NimishP/Literal_IR_Spanish.wav,1,second,10,spanish,S5,conventional,second,1,5
186,225,5495,audio-button-response,12,215599,16736,group2,yes,prosody_paired_samples/NimishP/Literal_IR_phone.wav,1,second,7,phone,S5,non-conventional,second,1,6
187,226,7963,audio-button-response,13,223564,16736,group2,yes,prosody_paired_samples/NimishP/Literal_IR_car.wav,1,second,1,car,S5,non-conventional,second,1,7
188,227,6229,audio-button-response,14,229796,16736,group2,yes,prosody_paired_samples/NimishP/Literal_IR_office.wav,1,second,6,office,S5,non-conventional,second,1,8
189,228,9516,audio-button-response,15,239316,16736,group2,yes,prosody_paired_samples/NimishP/IR_Literal_back.wav,0,first,2,back,S5,non-conventional,first,1,9
190,229,6775,audio-button-response,16,246094,16736,group2,yes,prosody_paired_samples/NimishP/IR_Literal_piano.wav,0,first,8,piano,S5,conventional,first,1,10
191,230,4940,audio-button-response,17,251036,16736,group2,yes,prosody_paired_samples/NimishP/IR_Literal_door.wav,0,first,4,door,S5,conventional,first,1,11
192,231,5911,audio-button-response,18,256950,16736,group2,yes,prosody_paired_samples/NimishP/Literal_IR_soup.wav,1,second,9,soup,S5,non-conventional,second,1,12
193,232,6596,audio-button-response,19,263550,16736,group2,yes,prosody_paired_samples/KatieS/Literal_IR_back.wav,1,second,2,back,S3,non-conventional,second,1,13
194,233,5658,audio-button-response,20,269212,16736,group2,yes,prosody_paired_samples/KatieS/IR_Literal_box.wav,1,first,3,box,S3,conventional,second,0,14
195,234,14874,audio-button-response,21,284089,16736,group2,yes,prosody_paired_samples/KatieS/Literal_IR_Spanish.wav,0,second,10,spanish,S3,conventional,first,0,15
196,235,6609,audio-button-response,22,290701,16736,group2,yes,prosody_paired_samples/KatieS/Literal_IR_phone.wav,0,second,7,phone,S3,non-conventional,first,0,16
197,236,7092,audio-button-response,23,297795,16736,group2,yes,prosody_paired_samples/KatieS/IR_Literal_temp.wav,1,first,12,temperature,S3,conventional,second,0,17
198,237,5157,audio-button-response,24,302955,16736,group2,yes,prosody_paired_samples/KatieS/IR_Literal_piano.wav,1,first,8,piano,S3,conventional,second,0,18
199,238,7233,audio-button-response,25,310193,16736,group2,yes,prosody_paired_samples/KatieS/IR_Literal_car.wav,0,first,1,car,S3,non-conventional,first,1,19
200,239,8048,audio-button-response,26,318244,16736,group2,yes,prosody_paired_samples/KatieS/Literal_IR_laptop.wav,0,second,5,laptop,S3,non-conventional,first,0,20
201,240,4903,audio-button-response,27,323153,16736,group2,yes,prosody_paired_samples/KatieS/Literal_IR_door.wav,0,second,4,door,S3,conventional,first,0,21
202,241,7943,audio-button-response,28,331098,16736,group2,yes,prosody_paired_samples/KatieS/IR_Literal_office.wav,0,first,6,office,S3,non-conventional,first,1,22
203,242,5051,audio-button-response,29,336152,16736,group2,yes,prosody_paired_samples/KatieS/IR_Literal_soup.wav,1,first,9,soup,S3,non-conventional,second,0,23
204,243,4937,audio-button-response,30,341091,16736,group2,yes,prosody_paired_samples/KatieS/Literal_IR_window.wav,1,second,11,window,S3,conventional,second,1,24
205,244,5194,audio-button-response,31,346288,16736,group2,yes,prosody_paired_samples/KarenL/literal_IR_soup.wav,1,second,9,soup,S2,non-conventional,second,1,25
206,245,5623,audio-button-response,32,351915,16736,group2,yes,prosody_paired_samples/KarenL/IR_literal_office.wav,1,first,6,office,S2,non-conventional,second,0,26
207,246,5761,audio-button-response,33,357677,16736,group2,yes,prosody_paired_samples/KarenL/IR_literal_piano.wav,1,first,8,piano,S2,conventional,second,0,27
208,247,5975,audio-button-response,34,363656,16736,group2,yes,prosody_paired_samples/KarenL/IR_literal_door.wav,0,first,4,door,S2,conventional,first,1,28
209,248,5747,audio-button-response,35,369406,16736,group2,yes,prosody_paired_samples/KarenL/IR_literal_car.wav,0,first,1,car,S2,non-conventional,first,1,29
210,249,6543,audio-button-response,36,375953,16736,group2,yes,prosody_paired_samples/KarenL/literal_IR_temp.wav,1,second,12,temperature,S2,conventional,second,1,30
211,250,5014,audio-button-response,37,380968,16736,group2,yes,prosody_paired_samples/KarenL/literal_IR_window.wav,1,second,11,window,S2,conventional,second,1,31
212,251,6205,audio-button-response,38,387176,16736,group2,yes,prosody_paired_samples/KarenL/IR_literal_laptop.wav,0,first,5,laptop,S2,non-conventional,first,1,32
213,252,5017,audio-button-response,39,392196,16736,group2,yes,prosody_paired_samples/KarenL/literal_IR_phone.wav,1,second,7,phone,S2,non-conventional,second,1,33
214,253,5967,audio-button-response,40,398166,16736,group2,yes,prosody_paired_samples/KarenL/literal_IR_box.wav,1,second,3,box,S2,conventional,second,1,34
215,254,5369,audio-button-response,41,403538,16736,group2,yes,prosody_paired_samples/KarenL/IR_literal_Spanish.wav,1,first,10,spanish,S2,conventional,second,0,35
216,255,4960,audio-button-response,42,408501,16736,group2,yes,prosody_paired_samples/KarenL/literal_IR_back.wav,1,second,2,back,S2,non-conventional,second,1,36
217,256,5797,audio-button-response,43,414300,16736,group2,yes,prosody_paired_samples/MaiyiY/literal_IR_temp.wav,1,second,12,temperature,S4,conventional,second,1,37
218,257,5259,audio-button-response,44,419560,16736,group2,yes,prosody_paired_samples/MaiyiY/literal_IR_laptop.wav,1,second,5,laptop,S4,non-conventional,second,1,38
219,258,6053,audio-button-response,45,425617,16736,group2,yes,prosody_paired_samples/MaiyiY/IR_literal_office.wav,0,first,6,office,S4,non-conventional,first,1,39
220,259,5368,audio-button-response,46,430989,16736,group2,yes,prosody_paired_samples/MaiyiY/literal_IR_window.wav,1,second,11,window,S4,conventional,second,1,40
221,260,5988,audio-button-response,47,436978,16736,group2,yes,prosody_paired_samples/MaiyiY/IR_literal_Spanish.wav,0,first,10,spanish,S4,conventional,first,1,41
222,261,5396,audio-button-response,48,442377,16736,group2,yes,prosody_paired_samples/MaiyiY/literal_IR_phone.wav,0,second,7,phone,S4,non-conventional,first,0,42
223,262,5209,audio-button-response,49,447589,16736,group2,yes,prosody_paired_samples/MaiyiY/IR_literal_box.wav,0,first,3,box,S4,conventional,first,1,43
224,263,5573,audio-button-response,50,453167,16736,group2,yes,prosody_paired_samples/MaiyiY/IR_literal_car.wav,1,first,1,car,S4,non-conventional,second,0,44
225,264,5432,audio-button-response,51,458600,16736,group2,yes,prosody_paired_samples/MaiyiY/IR_literal_soup.wav,1,first,9,soup,S4,non-conventional,second,0,45
226,265,4918,audio-button-response,52,463520,16736,group2,yes,prosody_paired_samples/MaiyiY/literal_IR_door.wav,1,second,4,door,S4,conventional,second,1,46
227,266,5068,audio-button-response,53,468591,16736,group2,yes,prosody_paired_samples/MaiyiY/literal_IR_back.wav,1,second,2,back,S4,non-conventional,second,1,47
228,267,4488,audio-button-response,54,473081,16736,group2,yes,prosody_paired_samples/MaiyiY/IR_literal_piano.wav,1,first,8,piano,S4,conventional,second,0,48
229,268,5835,audio-button-response,55,478919,16736,group2,yes,prosody_paired_samples/DannyK/literal_IR_piano.wav,0,second,8,piano,S1,conventional,first,0,49
230,269,7369,audio-button-response,56,486291,16736,group2,yes,prosody_paired_samples/DannyK/IR_literal_temp.wav,1,first,12,temperature,S1,conventional,second,0,50
231,270,6037,audio-button-response,57,492331,16736,group2,yes,prosody_paired_samples/DannyK/literal_IR_office.wav,1,second,6,office,S1,non-conventional,second,1,51
232,271,5380,audio-button-response,58,497713,16736,group2,yes,prosody_paired_samples/DannyK/literal_IR_laptop.wav,1,second,5,laptop,S1,non-conventional,second,1,52
233,272,5298,audio-button-response,59,503014,16736,group2,yes,prosody_paired_samples/DannyK/IR_literal_back.wav,1,first,2,back,S1,non-conventional,second,0,53
234,273,5835,audio-button-response,60,508852,16736,group2,yes,prosody_paired_samples/DannyK/literal_IR_car.wav,0,second,1,car,S1,non-conventional,first,0,54
235,274,4969,audio-button-response,61,513823,16736,group2,yes,prosody_paired_samples/DannyK/IR_literal_window.wav,1,first,11,window,S1,conventional,second,0,55
236,275,5493,audio-button-response,62,519317,16736,group2,yes,prosody_paired_samples/DannyK/literal_IR_box.wav,1,second,3,box,S1,conventional,second,1,56
237,276,6676,audio-button-response,63,525996,16736,group2,yes,prosody_paired_samples/DannyK/literal_IR_Spanish.wav,0,second,10,spanish,S1,conventional,first,0,57
238,277,6854,audio-button-response,64,532853,16736,group2,yes,prosody_paired_samples/DannyK/IR_literal_phone.wav,1,first,7,phone,S1,non-conventional,second,0,58
239,278,5754,audio-button-response,65,538609,16736,group2,yes,prosody_paired_samples/DannyK/IR_literal_soup.wav,0,first,9,soup,S1,non-conventional,first,1,59
240,279,5589,audio-button-response,66,544202,16736,group2,yes,prosody_paired_samples/DannyK/IR_literal_door.wav,1,first,4,door,S1,conventional,second,0,60
241,291,5265,audio-button-response,7,77468,16783,group1,yes,prosody_paired_samples/DannyK/literal_IR_box.wav,0,second,3,box,S1,conventional,first,0,1
242,292,7975,audio-button-response,8,85444,16783,group1,yes,prosody_paired_samples/DannyK/IR_literal_back.wav,1,first,2,back,S1,non-conventional,second,0,2
243,293,5893,audio-button-response,9,91338,16783,group1,yes,prosody_paired_samples/DannyK/IR_literal_laptop.wav,0,first,5,laptop,S1,non-conventional,first,1,3
244,294,7604,audio-button-response,10,98943,16783,group1,yes,prosody_paired_samples/DannyK/literal_IR_temp.wav,0,second,12,temperature,S1,conventional,first,0,4
245,295,6173,audio-button-response,11,105116,16783,group1,yes,prosody_paired_samples/DannyK/IR_literal_office.wav,0,first,6,office,S1,non-conventional,first,1,5
246,296,5557,audio-button-response,12,110673,16783,group1,yes,prosody_paired_samples/DannyK/literal_IR_window.wav,0,second,11,window,S1,conventional,first,0,6
247,297,5012,audio-button-response,13,115686,16783,group1,yes,prosody_paired_samples/DannyK/literal_IR_phone.wav,1,second,7,phone,S1,non-conventional,second,1,7
248,298,5083,audio-button-response,14,120769,16783,group1,yes,prosody_paired_samples/DannyK/literal_IR_piano.wav,0,second,8,piano,S1,conventional,first,0,8
249,299,5572,audio-button-response,15,126342,16783,group1,yes,prosody_paired_samples/DannyK/literal_IR_car.wav,0,second,1,car,S1,non-conventional,first,0,9
250,300,4800,audio-button-response,16,131142,16783,group1,yes,prosody_paired_samples/DannyK/IR_literal_soup.wav,0,first,9,soup,S1,non-conventional,first,1,10
251,301,6491,audio-button-response,17,137634,16783,group1,yes,prosody_paired_samples/DannyK/IR_literal_door.wav,1,first,4,door,S1,conventional,second,0,11
252,302,5563,audio-button-response,18,143199,16783,group1,yes,prosody_paired_samples/DannyK/IR_literal_Spanish.wav,0,first,10,spanish,S1,conventional,first,1,12
253,303,5611,audio-button-response,19,148810,16783,group1,yes,prosody_paired_samples/MaiyiY/literal_IR_office.wav,0,second,6,office,S4,non-conventional,first,0,13
254,304,5393,audio-button-response,20,154204,16783,group1,yes,prosody_paired_samples/MaiyiY/literal_IR_car.wav,1,second,1,car,S4,non-conventional,second,1,14
255,305,5520,audio-button-response,21,159724,16783,group1,yes,prosody_paired_samples/MaiyiY/IR_literal_temp.wav,0,first,12,temperature,S4,conventional,first,1,15
256,306,5007,audio-button-response,22,164732,16783,group1,yes,prosody_paired_samples/MaiyiY/literal_IR_door.wav,1,second,4,door,S4,conventional,second,1,16
257,307,5345,audio-button-response,23,170077,16783,group1,yes,prosody_paired_samples/MaiyiY/IR_literal_back.wav,0,first,2,back,S4,non-conventional,first,1,17
258,308,5140,audio-button-response,24,175217,16783,group1,yes,prosody_paired_samples/MaiyiY/literal_IR_piano.wav,1,second,8,piano,S4,conventional,second,1,18
259,309,6098,audio-button-response,25,181316,16783,group1,yes,prosody_paired_samples/MaiyiY/IR_literal_laptop.wav,0,first,5,laptop,S4,non-conventional,first,1,19
260,310,5182,audio-button-response,26,186498,16783,group1,yes,prosody_paired_samples/MaiyiY/literal_IR_phone.wav,0,second,7,phone,S4,non-conventional,first,0,20
261,311,5298,audio-button-response,27,191797,16783,group1,yes,prosody_paired_samples/MaiyiY/IR_literal_soup.wav,0,first,9,soup,S4,non-conventional,first,1,21
262,312,5050,audio-button-response,28,196847,16783,group1,yes,prosody_paired_samples/MaiyiY/literal_IR_window.wav,1,second,11,window,S4,conventional,second,1,22
263,313,4864,audio-button-response,29,201713,16783,group1,yes,prosody_paired_samples/MaiyiY/IR_literal_Spanish.wav,0,first,10,spanish,S4,conventional,first,1,23
264,314,3138,audio-button-response,30,204852,16783,group1,yes,prosody_paired_samples/MaiyiY/IR_literal_box.wav,0,first,3,box,S4,conventional,first,1,24
265,315,4925,audio-button-response,31,209778,16783,group1,yes,prosody_paired_samples/KarenL/literal_IR_soup.wav,1,second,9,soup,S2,non-conventional,second,1,25
266,316,5604,audio-button-response,32,215383,16783,group1,yes,prosody_paired_samples/KarenL/literal_IR_temp.wav,0,second,12,temperature,S2,conventional,first,0,26
267,317,5574,audio-button-response,33,220957,16783,group1,yes,prosody_paired_samples/KarenL/IR_literal_window.wav,1,first,11,window,S2,conventional,second,0,27
268,318,5820,audio-button-response,34,226779,16783,group1,yes,prosody_paired_samples/KarenL/IR_literal_Spanish.wav,0,first,10,spanish,S2,conventional,first,1,28
269,319,5297,audio-button-response,35,232077,16783,group1,yes,prosody_paired_samples/KarenL/IR_literal_car.wav,0,first,1,car,S2,non-conventional,first,1,29
270,320,6157,audio-button-response,36,238235,16783,group1,yes,prosody_paired_samples/KarenL/IR_literal_back.wav,0,first,2,back,S2,non-conventional,first,1,30
271,321,4848,audio-button-response,37,243084,16783,group1,yes,prosody_paired_samples/KarenL/IR_literal_box.wav,0,first,3,box,S2,conventional,first,1,31
272,322,5316,audio-button-response,38,248400,16783,group1,yes,prosody_paired_samples/KarenL/literal_IR_office.wav,0,second,6,office,S2,non-conventional,first,0,32
273,323,6214,audio-button-response,39,254615,16783,group1,yes,prosody_paired_samples/KarenL/literal_IR_piano.wav,1,second,8,piano,S2,conventional,second,1,33
274,324,5200,audio-button-response,40,259816,16783,group1,yes,prosody_paired_samples/KarenL/literal_IR_laptop.wav,0,second,5,laptop,S2,non-conventional,first,0,34
275,325,4093,audio-button-response,41,263910,16783,group1,yes,prosody_paired_samples/KarenL/literal_IR_door.wav,0,second,4,door,S2,conventional,first,0,35
276,326,4612,audio-button-response,42,268522,16783,group1,yes,prosody_paired_samples/KarenL/IR_literal_phone.wav,0,first,7,phone,S2,non-conventional,first,1,36
277,327,2701,audio-button-response,43,271223,16783,group1,yes,prosody_paired_samples/KatieS/IR_Literal_window.wav,0,first,11,window,S3,conventional,first,1,37
278,328,4496,audio-button-response,44,275719,16783,group1,yes,prosody_paired_samples/KatieS/Literal_IR_phone.wav,1,second,7,phone,S3,non-conventional,second,1,38
279,329,2314,audio-button-response,45,278033,16783,group1,yes,prosody_paired_samples/KatieS/Literal_IR_piano.wav,0,second,8,piano,S3,conventional,first,0,39
280,330,2436,audio-button-response,46,280471,16783,group1,yes,prosody_paired_samples/KatieS/Literal_IR_car.wav,0,second,1,car,S3,non-conventional,first,0,40
281,331,2342,audio-button-response,47,282813,16783,group1,yes,prosody_paired_samples/KatieS/IR_Literal_temp.wav,0,first,12,temperature,S3,conventional,first,1,41
282,332,5717,audio-button-response,48,288531,16783,group1,yes,prosody_paired_samples/KatieS/Literal_IR_office.wav,0,second,6,office,S3,non-conventional,first,0,42
283,333,4431,audio-button-response,49,292962,16783,group1,yes,prosody_paired_samples/KatieS/Literal_IR_soup.wav,1,second,9,soup,S3,non-conventional,second,1,43
284,334,2552,audio-button-response,50,295516,16783,group1,yes,prosody_paired_samples/KatieS/IR_Literal_door.wav,0,first,4,door,S3,conventional,first,1,44
285,335,2402,audio-button-response,51,297918,16783,group1,yes,prosody_paired_samples/KatieS/IR_Literal_Spanish.wav,0,first,10,spanish,S3,conventional,first,1,45
286,336,2212,audio-button-response,52,300131,16783,group1,yes,prosody_paired_samples/KatieS/IR_Literal_box.wav,0,first,3,box,S3,conventional,first,1,46
287,337,4659,audio-button-response,53,304790,16783,group1,yes,prosody_paired_samples/KatieS/Literal_IR_back.wav,1,second,2,back,S3,non-conventional,second,1,47
288,338,5252,audio-button-response,54,310043,16783,group1,yes,prosody_paired_samples/KatieS/IR_Literal_laptop.wav,0,first,5,laptop,S3,non-conventional,first,1,48
289,339,2675,audio-button-response,55,312718,16783,group1,yes,prosody_paired_samples/NimishP/Literal_IR_phone.wav,0,second,7,phone,S5,non-conventional,first,0,49
290,340,2584,audio-button-response,56,315303,16783,group1,yes,prosody_paired_samples/NimishP/IR_Literal_laptop.wav,0,first,5,laptop,S5,non-conventional,first,1,50
291,341,2252,audio-button-response,57,317556,16783,group1,yes,prosody_paired_samples/NimishP/Literal_IR_box.wav,0,second,3,box,S5,conventional,first,0,51
292,342,2534,audio-button-response,58,320091,16783,group1,yes,prosody_paired_samples/NimishP/IR_Literal_Spanish.wav,0,first,10,spanish,S5,conventional,first,1,52
293,343,4877,audio-button-response,59,324968,16783,group1,yes,prosody_paired_samples/NimishP/Literal_IR_window.wav,1,second,11,window,S5,conventional,second,1,53
294,344,5242,audio-button-response,60,330210,16783,group1,yes,prosody_paired_samples/NimishP/IR_Literal_soup.wav,0,first,9,soup,S5,non-conventional,first,1,54
295,345,5297,audio-button-response,61,335508,16783,group1,yes,prosody_paired_samples/NimishP/Literal_IR_car.wav,1,second,1,car,S5,non-conventional,second,1,55
296,346,4203,audio-button-response,62,339712,16783,group1,yes,prosody_paired_samples/NimishP/IR_Literal_temp.wav,0,first,12,temperature,S5,conventional,first,1,56
297,347,5284,audio-button-response,63,344996,16783,group1,yes,prosody_paired_samples/NimishP/Literal_IR_office.wav,1,second,6,office,S5,non-conventional,second,1,57
298,348,5486,audio-button-response,64,350483,16783,group1,yes,prosody_paired_samples/NimishP/IR_Literal_back.wav,0,first,2,back,S5,non-conventional,first,1,58
299,349,2574,audio-button-response,65,353057,16783,group1,yes,prosody_paired_samples/NimishP/IR_Literal_piano.wav,0,first,8,piano,S5,conventional,first,1,59
300,350,4363,audio-button-response,66,357421,16783,group1,yes,prosody_paired_samples/NimishP/Literal_IR_door.wav,1,second,4,door,S5,conventional,second,1,60
301,362,9295,audio-button-response,7,44831,17141,group1,yes,prosody_paired_samples/KarenL/literal_IR_laptop.wav,0,second,5,laptop,S2,non-conventional,first,0,1
302,363,6822,audio-button-response,8,51655,17141,group1,yes,prosody_paired_samples/KarenL/IR_literal_window.wav,1,first,11,window,S2,conventional,second,0,2
303,364,5754,audio-button-response,9,57409,17141,group1,yes,prosody_paired_samples/KarenL/literal_IR_box.wav,1,second,3,box,S2,conventional,second,1,3
304,365,5973,audio-button-response,10,63382,17141,group1,yes,prosody_paired_samples/KarenL/literal_IR_Spanish.wav,0,second,10,spanish,S2,conventional,first,0,4
305,366,6642,audio-button-response,11,70025,17141,group1,yes,prosody_paired_samples/KarenL/literal_IR_office.wav,0,second,6,office,S2,non-conventional,first,0,5
306,367,5608,audio-button-response,12,75633,17141,group1,yes,prosody_paired_samples/KarenL/IR_literal_piano.wav,0,first,8,piano,S2,conventional,first,1,6
307,368,5109,audio-button-response,13,80743,17141,group1,yes,prosody_paired_samples/KarenL/IR_literal_door.wav,0,first,4,door,S2,conventional,first,1,7
308,369,5775,audio-button-response,14,86518,17141,group1,yes,prosody_paired_samples/KarenL/IR_literal_soup.wav,0,first,9,soup,S2,non-conventional,first,1,8
309,370,5890,audio-button-response,15,92409,17141,group1,yes,prosody_paired_samples/KarenL/IR_literal_car.wav,0,first,1,car,S2,non-conventional,first,1,9
310,371,6395,audio-button-response,16,98804,17141,group1,yes,prosody_paired_samples/KarenL/literal_IR_temp.wav,0,second,12,temperature,S2,conventional,first,0,10
311,372,6123,audio-button-response,17,104928,17141,group1,yes,prosody_paired_samples/KarenL/literal_IR_back.wav,0,second,2,back,S2,non-conventional,first,0,11
312,373,5695,audio-button-response,18,110625,17141,group1,yes,prosody_paired_samples/KarenL/IR_literal_phone.wav,0,first,7,phone,S2,non-conventional,first,1,12
313,374,5337,audio-button-response,19,115962,17141,group1,yes,prosody_paired_samples/KatieS/Literal_IR_door.wav,1,second,4,door,S3,conventional,second,1,13
314,375,7085,audio-button-response,20,123048,17141,group1,yes,prosody_paired_samples/KatieS/Literal_IR_temp.wav,0,second,12,temperature,S3,conventional,first,0,14
315,376,9331,audio-button-response,21,132381,17141,group1,yes,prosody_paired_samples/KatieS/IR_Literal_back.wav,0,first,2,back,S3,non-conventional,first,1,15
316,377,5262,audio-button-response,22,137643,17141,group1,yes,prosody_paired_samples/KatieS/Literal_IR_soup.wav,1,second,9,soup,S3,non-conventional,second,1,16
317,378,5183,audio-button-response,23,142826,17141,group1,yes,prosody_paired_samples/KatieS/IR_Literal_piano.wav,1,first,8,piano,S3,conventional,second,0,17
318,379,6225,audio-button-response,24,149052,17141,group1,yes,prosody_paired_samples/KatieS/IR_Literal_office.wav,0,first,6,office,S3,non-conventional,first,1,18
319,380,5653,audio-button-response,25,154706,17141,group1,yes,prosody_paired_samples/KatieS/IR_Literal_phone.wav,0,first,7,phone,S3,non-conventional,first,1,19
320,381,5446,audio-button-response,26,160153,17141,group1,yes,prosody_paired_samples/KatieS/IR_Literal_window.wav,1,first,11,window,S3,conventional,second,0,20
321,382,5463,audio-button-response,27,165617,17141,group1,yes,prosody_paired_samples/KatieS/Literal_IR_Spanish.wav,0,second,10,spanish,S3,conventional,first,0,21
322,383,5075,audio-button-response,28,170693,17141,group1,yes,prosody_paired_samples/KatieS/Literal_IR_laptop.wav,0,second,5,laptop,S3,non-conventional,first,0,22
323,384,5305,audio-button-response,29,175999,17141,group1,yes,prosody_paired_samples/KatieS/Literal_IR_box.wav,1,second,3,box,S3,conventional,second,1,23
324,385,6608,audio-button-response,30,182609,17141,group1,yes,prosody_paired_samples/KatieS/IR_Literal_car.wav,1,first,1,car,S3,non-conventional,second,0,24
325,386,6394,audio-button-response,31,189003,17141,group1,yes,prosody_paired_samples/MaiyiY/literal_IR_laptop.wav,0,second,5,laptop,S4,non-conventional,first,0,25
326,387,6384,audio-button-response,32,195387,17141,group1,yes,prosody_paired_samples/MaiyiY/literal_IR_Spanish.wav,1,second,10,spanish,S4,conventional,second,1,26
327,388,5276,audio-button-response,33,200663,17141,group1,yes,prosody_paired_samples/MaiyiY/IR_literal_box.wav,1,first,3,box,S4,conventional,second,0,27
328,389,5557,audio-button-response,34,206220,17141,group1,yes,prosody_paired_samples/MaiyiY/IR_literal_temp.wav,0,first,12,temperature,S4,conventional,first,1,28
329,390,137,audio-button-response,35,206360,17141,group1,yes,prosody_paired_samples/MaiyiY/literal_IR_piano.wav,0,second,8,piano,S4,conventional,first,0,29
330,391,5081,audio-button-response,36,211441,17141,group1,yes,prosody_paired_samples/MaiyiY/literal_IR_phone.wav,0,second,7,phone,S4,non-conventional,first,0,30
331,392,6158,audio-button-response,37,217599,17141,group1,yes,prosody_paired_samples/MaiyiY/IR_literal_office.wav,0,first,6,office,S4,non-conventional,first,1,31
332,393,5613,audio-button-response,38,223213,17141,group1,yes,prosody_paired_samples/MaiyiY/IR_literal_back.wav,0,first,2,back,S4,non-conventional,first,1,32
333,394,5456,audio-button-response,39,228669,17141,group1,yes,prosody_paired_samples/MaiyiY/literal_IR_window.wav,1,second,11,window,S4,conventional,second,1,33
334,395,99,audio-button-response,40,228769,17141,group1,yes,prosody_paired_samples/MaiyiY/IR_literal_door.wav,1,first,4,door,S4,conventional,second,0,34
335,396,5577,audio-button-response,41,234347,17141,group1,yes,prosody_paired_samples/MaiyiY/literal_IR_car.wav,0,second,1,car,S4,non-conventional,first,0,35
336,397,5414,audio-button-response,42,239761,17141,group1,yes,prosody_paired_samples/MaiyiY/IR_literal_soup.wav,0,first,9,soup,S4,non-conventional,first,1,36
337,398,54,audio-button-response,43,239815,17141,group1,yes,prosody_paired_samples/NimishP/IR_Literal_temp.wav,0,first,12,temperature,S5,conventional,first,1,37
338,399,6229,audio-button-response,44,246046,17141,group1,yes,prosody_paired_samples/NimishP/Literal_IR_soup.wav,1,second,9,soup,S5,non-conventional,second,1,38
339,400,6231,audio-button-response,45,252278,17141,group1,yes,prosody_paired_samples/NimishP/IR_Literal_laptop.wav,0,first,5,laptop,S5,non-conventional,first,1,39
340,401,4611,audio-button-response,46,256889,17141,group1,yes,prosody_paired_samples/NimishP/Literal_IR_door.wav,0,second,4,door,S5,conventional,first,0,40
341,402,5386,audio-button-response,47,262275,17141,group1,yes,prosody_paired_samples/NimishP/IR_Literal_car.wav,0,first,1,car,S5,non-conventional,first,1,41
342,403,4921,audio-button-response,48,267198,17141,group1,yes,prosody_paired_samples/NimishP/IR_Literal_phone.wav,0,first,7,phone,S5,non-conventional,first,1,42
343,404,3929,audio-button-response,49,271128,17141,group1,yes,prosody_paired_samples/NimishP/IR_Literal_Spanish.wav,0,first,10,spanish,S5,conventional,first,1,43
344,405,5114,audio-button-response,50,276242,17141,group1,yes,prosody_paired_samples/NimishP/IR_Literal_piano.wav,0,first,8,piano,S5,conventional,first,1,44
345,406,4995,audio-button-response,51,281237,17141,group1,yes,prosody_paired_samples/NimishP/Literal_IR_window.wav,1,second,11,window,S5,conventional,second,1,45
346,407,5399,audio-button-response,52,286636,17141,group1,yes,prosody_paired_samples/NimishP/Literal_IR_office.wav,1,second,6,office,S5,non-conventional,second,1,46
347,408,4892,audio-button-response,53,291529,17141,group1,yes,prosody_paired_samples/NimishP/Literal_IR_box.wav,0,second,3,box,S5,conventional,first,0,47
348,409,5257,audio-button-response,54,296786,17141,group1,yes,prosody_paired_samples/NimishP/Literal_IR_back.wav,0,second,2,back,S5,non-conventional,first,0,48
349,410,5794,audio-button-response,55,302580,17141,group1,yes,prosody_paired_samples/DannyK/literal_IR_box.wav,0,second,3,box,S1,conventional,first,0,49
350,411,3333,audio-button-response,56,305915,17141,group1,yes,prosody_paired_samples/DannyK/IR_literal_window.wav,0,first,11,window,S1,conventional,first,1,50
351,412,5241,audio-button-response,57,311157,17141,group1,yes,prosody_paired_samples/DannyK/IR_literal_phone.wav,0,first,7,phone,S1,non-conventional,first,1,51
352,413,5441,audio-button-response,58,316599,17141,group1,yes,prosody_paired_samples/DannyK/literal_IR_car.wav,0,second,1,car,S1,non-conventional,first,0,52
353,414,5561,audio-button-response,59,322161,17141,group1,yes,prosody_paired_samples/DannyK/literal_IR_back.wav,1,second,2,back,S1,non-conventional,second,1,53
354,415,87,audio-button-response,60,322249,17141,group1,yes,prosody_paired_samples/DannyK/literal_IR_soup.wav,1,second,9,soup,S1,non-conventional,second,1,54
355,416,5597,audio-button-response,61,327847,17141,group1,yes,prosody_paired_samples/DannyK/literal_IR_Spanish.wav,0,second,10,spanish,S1,conventional,first,0,55
356,417,5289,audio-button-response,62,333136,17141,group1,yes,prosody_paired_samples/DannyK/IR_literal_piano.wav,1,first,8,piano,S1,conventional,second,0,56
357,418,5706,audio-button-response,63,338843,17141,group1,yes,prosody_paired_samples/DannyK/IR_literal_laptop.wav,0,first,5,laptop,S1,non-conventional,first,1,57
358,419,5651,audio-button-response,64,344495,17141,group1,yes,prosody_paired_samples/DannyK/IR_literal_office.wav,0,first,6,office,S1,non-conventional,first,1,58
359,420,5327,audio-button-response,65,349823,17141,group1,yes,prosody_paired_samples/DannyK/literal_IR_door.wav,1,second,4,door,S1,conventional,second,1,59
360,421,5707,audio-button-response,66,355531,17141,group1,yes,prosody_paired_samples/DannyK/IR_literal_temp.wav,1,first,12,temperature,S1,conventional,second,0,60
361,433,6257,audio-button-response,7,77800,1772,group3,yes,prosody_paired_samples/NimishP/Literal_IR_window.wav,1,second,11,window,S5,conventional,second,1,1
362,434,8883,audio-button-response,8,86684,1772,group3,yes,prosody_paired_samples/NimishP/Literal_IR_office.wav,0,second,6,office,S5,non-conventional,first,0,2
363,435,6279,audio-button-response,9,92964,1772,group3,yes,prosody_paired_samples/NimishP/IR_Literal_box.wav,0,first,3,box,S5,conventional,first,1,3
364,436,6161,audio-button-response,10,99128,1772,group3,yes,prosody_paired_samples/NimishP/IR_Literal_temp.wav,0,first,12,temperature,S5,conventional,first,1,4
365,437,6731,audio-button-response,11,105860,1772,group3,yes,prosody_paired_samples/NimishP/Literal_IR_car.wav,0,second,1,car,S5,non-conventional,first,0,5
366,438,7541,audio-button-response,12,113401,1772,group3,yes,prosody_paired_samples/NimishP/IR_Literal_phone.wav,0,first,7,phone,S5,non-conventional,first,1,6
367,439,8252,audio-button-response,13,121654,1772,group3,yes,prosody_paired_samples/NimishP/Literal_IR_back.wav,1,second,2,back,S5,non-conventional,second,1,7
368,440,5501,audio-button-response,14,127156,1772,group3,yes,prosody_paired_samples/NimishP/Literal_IR_door.wav,1,second,4,door,S5,conventional,second,1,8
369,441,9696,audio-button-response,15,136853,1772,group3,yes,prosody_paired_samples/NimishP/IR_Literal_Spanish.wav,1,first,10,spanish,S5,conventional,second,0,9
370,442,6672,audio-button-response,16,143526,1772,group3,yes,prosody_paired_samples/NimishP/Literal_IR_soup.wav,0,second,9,soup,S5,non-conventional,first,0,10
371,443,7496,audio-button-response,17,151024,1772,group3,yes,prosody_paired_samples/NimishP/IR_Literal_laptop.wav,0,first,5,laptop,S5,non-conventional,first,1,11
372,444,6247,audio-button-response,18,157272,1772,group3,yes,prosody_paired_samples/NimishP/IR_Literal_piano.wav,1,first,8,piano,S5,conventional,second,0,12
373,445,7945,audio-button-response,19,165217,1772,group3,yes,prosody_paired_samples/DannyK/IR_literal_laptop.wav,0,first,5,laptop,S1,non-conventional,first,1,13
374,446,7753,audio-button-response,20,172972,1772,group3,yes,prosody_paired_samples/DannyK/literal_IR_door.wav,1,second,4,door,S1,conventional,second,1,14
375,447,5742,audio-button-response,21,178715,1772,group3,yes,prosody_paired_samples/DannyK/IR_literal_window.wav,0,first,11,window,S1,conventional,first,1,15
376,448,6343,audio-button-response,22,185058,1772,group3,yes,prosody_paired_samples/DannyK/IR_literal_soup.wav,1,first,9,soup,S1,non-conventional,second,0,16
377,449,5895,audio-button-response,23,190956,1772,group3,yes,prosody_paired_samples/DannyK/literal_IR_Spanish.wav,0,second,10,spanish,S1,conventional,first,0,17
378,450,6108,audio-button-response,24,197065,1772,group3,yes,prosody_paired_samples/DannyK/literal_IR_office.wav,0,second,6,office,S1,non-conventional,first,0,18
379,451,5367,audio-button-response,25,202433,1772,group3,yes,prosody_paired_samples/DannyK/literal_IR_piano.wav,1,second,8,piano,S1,conventional,second,1,19
380,452,6129,audio-button-response,26,208565,1772,group3,yes,prosody_paired_samples/DannyK/IR_literal_box.wav,0,first,3,box,S1,conventional,first,1,20
381,453,6417,audio-button-response,27,214982,1772,group3,yes,prosody_paired_samples/DannyK/literal_IR_temp.wav,1,second,12,temperature,S1,conventional,second,1,21
382,454,5558,audio-button-response,28,220542,1772,group3,yes,prosody_paired_samples/DannyK/IR_literal_car.wav,0,first,1,car,S1,non-conventional,first,1,22
383,455,7981,audio-button-response,29,228526,1772,group3,yes,prosody_paired_samples/DannyK/IR_literal_back.wav,0,first,2,back,S1,non-conventional,first,1,23
384,456,7406,audio-button-response,30,235933,1772,group3,yes,prosody_paired_samples/DannyK/literal_IR_phone.wav,0,second,7,phone,S1,non-conventional,first,0,24
385,457,7517,audio-button-response,31,243450,1772,group3,yes,prosody_paired_samples/KatieS/IR_Literal_temp.wav,0,first,12,temperature,S3,conventional,first,1,25
386,458,8066,audio-button-response,32,251518,1772,group3,yes,prosody_paired_samples/KatieS/Literal_IR_office.wav,1,second,6,office,S3,non-conventional,second,1,26
387,459,8257,audio-button-response,33,259776,1772,group3,yes,prosody_paired_samples/KatieS/Literal_IR_soup.wav,1,second,9,soup,S3,non-conventional,second,1,27
388,460,7347,audio-button-response,34,267126,1772,group3,yes,prosody_paired_samples/KatieS/Literal_IR_door.wav,1,second,4,door,S3,conventional,second,1,28
389,461,6787,audio-button-response,35,273915,1772,group3,yes,prosody_paired_samples/KatieS/IR_Literal_window.wav,0,first,11,window,S3,conventional,first,1,29
390,462,7150,audio-button-response,36,281065,1772,group3,yes,prosody_paired_samples/KatieS/Literal_IR_laptop.wav,1,second,5,laptop,S3,non-conventional,second,1,30
391,463,7801,audio-button-response,37,288869,1772,group3,yes,prosody_paired_samples/KatieS/Literal_IR_car.wav,1,second,1,car,S3,non-conventional,second,1,31
392,464,7523,audio-button-response,38,296392,1772,group3,yes,prosody_paired_samples/KatieS/IR_Literal_phone.wav,0,first,7,phone,S3,non-conventional,first,1,32
393,465,8850,audio-button-response,39,305245,1772,group3,yes,prosody_paired_samples/KatieS/IR_Literal_back.wav,0,first,2,back,S3,non-conventional,first,1,33
394,466,9681,audio-button-response,40,314927,1772,group3,yes,prosody_paired_samples/KatieS/IR_Literal_piano.wav,0,first,8,piano,S3,conventional,first,1,34
395,467,7038,audio-button-response,41,321967,1772,group3,yes,prosody_paired_samples/KatieS/IR_Literal_Spanish.wav,0,first,10,spanish,S3,conventional,first,1,35
396,468,6313,audio-button-response,42,328281,1772,group3,yes,prosody_paired_samples/KatieS/Literal_IR_box.wav,1,second,3,box,S3,conventional,second,1,36
397,469,6783,audio-button-response,43,335064,1772,group3,yes,prosody_paired_samples/MaiyiY/literal_IR_door.wav,1,second,4,door,S4,conventional,second,1,37
398,470,7273,audio-button-response,44,342339,1772,group3,yes,prosody_paired_samples/MaiyiY/literal_IR_car.wav,1,second,1,car,S4,non-conventional,second,1,38
399,471,8763,audio-button-response,45,351104,1772,group3,yes,prosody_paired_samples/MaiyiY/literal_IR_piano.wav,1,second,8,piano,S4,conventional,second,1,39
400,472,6050,audio-button-response,46,357154,1772,group3,yes,prosody_paired_samples/MaiyiY/IR_literal_Spanish.wav,0,first,10,spanish,S4,conventional,first,1,40
401,473,6854,audio-button-response,47,364010,1772,group3,yes,prosody_paired_samples/MaiyiY/literal_IR_window.wav,0,second,11,window,S4,conventional,first,0,41
402,474,6597,audio-button-response,48,370610,1772,group3,yes,prosody_paired_samples/MaiyiY/IR_literal_temp.wav,0,first,12,temperature,S4,conventional,first,1,42
403,475,5727,audio-button-response,49,376338,1772,group3,yes,prosody_paired_samples/MaiyiY/IR_literal_box.wav,0,first,3,box,S4,conventional,first,1,43
404,476,7925,audio-button-response,50,384264,1772,group3,yes,prosody_paired_samples/MaiyiY/literal_IR_phone.wav,1,second,7,phone,S4,non-conventional,second,1,44
405,477,7244,audio-button-response,51,391509,1772,group3,yes,prosody_paired_samples/MaiyiY/IR_literal_soup.wav,1,first,9,soup,S4,non-conventional,second,0,45
406,478,6166,audio-button-response,52,397675,1772,group3,yes,prosody_paired_samples/MaiyiY/IR_literal_back.wav,0,first,2,back,S4,non-conventional,first,1,46
407,479,6188,audio-button-response,53,403865,1772,group3,yes,prosody_paired_samples/MaiyiY/IR_literal_office.wav,0,first,6,office,S4,non-conventional,first,1,47
408,480,7136,audio-button-response,54,411005,1772,group3,yes,prosody_paired_samples/MaiyiY/literal_IR_laptop.wav,0,second,5,laptop,S4,non-conventional,first,0,48
409,481,6546,audio-button-response,55,417554,1772,group3,yes,prosody_paired_samples/KarenL/literal_IR_laptop.wav,1,second,5,laptop,S2,non-conventional,second,1,49
410,482,6517,audio-button-response,56,424071,1772,group3,yes,prosody_paired_samples/KarenL/IR_literal_temp.wav,0,first,12,temperature,S2,conventional,first,1,50
411,483,7396,audio-button-response,57,431468,1772,group3,yes,prosody_paired_samples/KarenL/IR_literal_window.wav,1,first,11,window,S2,conventional,second,0,51
412,484,771,audio-button-response,58,432239,1772,group3,yes,prosody_paired_samples/KarenL/IR_literal_car.wav,1,first,1,car,S2,non-conventional,second,0,52
413,485,6005,audio-button-response,59,438246,1772,group3,yes,prosody_paired_samples/KarenL/IR_literal_door.wav,0,first,4,door,S2,conventional,first,1,53
414,486,5911,audio-button-response,60,444157,1772,group3,yes,prosody_paired_samples/KarenL/literal_IR_back.wav,1,second,2,back,S2,non-conventional,second,1,54
415,487,6731,audio-button-response,61,450890,1772,group3,yes,prosody_paired_samples/KarenL/literal_IR_box.wav,1,second,3,box,S2,conventional,second,1,55
416,488,6618,audio-button-response,62,457509,1772,group3,yes,prosody_paired_samples/KarenL/IR_literal_soup.wav,0,first,9,soup,S2,non-conventional,first,1,56
417,489,6958,audio-button-response,63,464468,1772,group3,yes,prosody_paired_samples/KarenL/IR_literal_phone.wav,0,first,7,phone,S2,non-conventional,first,1,57
418,490,7401,audio-button-response,64,471872,1772,group3,yes,prosody_paired_samples/KarenL/literal_IR_piano.wav,0,second,8,piano,S2,conventional,first,0,58
419,491,6221,audio-button-response,65,478094,1772,group3,yes,prosody_paired_samples/KarenL/literal_IR_office.wav,1,second,6,office,S2,non-conventional,second,1,59
420,492,6297,audio-button-response,66,484393,1772,group3,yes,prosody_paired_samples/KarenL/literal_IR_Spanish.wav,1,second,10,spanish,S2,conventional,second,1,60
421,504,8849,audio-button-response,7,75578,18450,group4,yes,prosody_paired_samples/KatieS/IR_Literal_back.wav,0,first,2,back,S3,non-conventional,first,1,1
422,505,7215,audio-button-response,8,82793,18450,group4,yes,prosody_paired_samples/KatieS/Literal_IR_box.wav,1,second,3,box,S3,conventional,second,1,2
423,506,6300,audio-button-response,9,89094,18450,group4,yes,prosody_paired_samples/KatieS/Literal_IR_Spanish.wav,1,second,10,spanish,S3,conventional,second,1,3
424,507,5769,audio-button-response,10,94863,18450,group4,yes,prosody_paired_samples/KatieS/IR_Literal_soup.wav,0,first,9,soup,S3,non-conventional,first,1,4
425,508,8192,audio-button-response,11,103055,18450,group4,yes,prosody_paired_samples/KatieS/IR_Literal_temp.wav,0,first,12,temperature,S3,conventional,first,1,5
426,509,6496,audio-button-response,12,109551,18450,group4,yes,prosody_paired_samples/KatieS/Literal_IR_office.wav,1,second,6,office,S3,non-conventional,second,1,6
427,510,6727,audio-button-response,13,116279,18450,group4,yes,prosody_paired_samples/KatieS/Literal_IR_piano.wav,0,second,8,piano,S3,conventional,first,0,7
428,511,5848,audio-button-response,14,122127,18450,group4,yes,prosody_paired_samples/KatieS/Literal_IR_door.wav,0,second,4,door,S3,conventional,first,0,8
429,512,6277,audio-button-response,15,128405,18450,group4,yes,prosody_paired_samples/KatieS/IR_Literal_laptop.wav,0,first,5,laptop,S3,non-conventional,first,1,9
430,513,7998,audio-button-response,16,136403,18450,group4,yes,prosody_paired_samples/KatieS/Literal_IR_car.wav,1,second,1,car,S3,non-conventional,second,1,10
431,514,6119,audio-button-response,17,142523,18450,group4,yes,prosody_paired_samples/KatieS/IR_Literal_window.wav,0,first,11,window,S3,conventional,first,1,11
432,515,6619,audio-button-response,18,149143,18450,group4,yes,prosody_paired_samples/KatieS/IR_Literal_phone.wav,0,first,7,phone,S3,non-conventional,first,1,12
433,516,6781,audio-button-response,19,155925,18450,group4,yes,prosody_paired_samples/NimishP/IR_Literal_soup.wav,0,first,9,soup,S5,non-conventional,first,1,13
434,517,6097,audio-button-response,20,162023,18450,group4,yes,prosody_paired_samples/NimishP/Literal_IR_door.wav,0,second,4,door,S5,conventional,first,0,14
435,518,5986,audio-button-response,21,168010,18450,group4,yes,prosody_paired_samples/NimishP/Literal_IR_car.wav,0,second,1,car,S5,non-conventional,first,0,15
436,519,6081,audio-button-response,22,174092,18450,group4,yes,prosody_paired_samples/NimishP/IR_Literal_temp.wav,0,first,12,temperature,S5,conventional,first,1,16
437,520,5848,audio-button-response,23,179941,18450,group4,yes,prosody_paired_samples/NimishP/Literal_IR_box.wav,0,second,3,box,S5,conventional,first,0,17
438,521,5847,audio-button-response,24,185788,18450,group4,yes,prosody_paired_samples/NimishP/Literal_IR_Spanish.wav,0,second,10,spanish,S5,conventional,first,0,18
439,522,6096,audio-button-response,25,191886,18450,group4,yes,prosody_paired_samples/NimishP/IR_Literal_laptop.wav,0,first,5,laptop,S5,non-conventional,first,1,19
440,523,5879,audio-button-response,26,197765,18450,group4,yes,prosody_paired_samples/NimishP/Literal_IR_back.wav,0,second,2,back,S5,non-conventional,first,0,20
441,524,5995,audio-button-response,27,203760,18450,group4,yes,prosody_paired_samples/NimishP/IR_Literal_window.wav,0,first,11,window,S5,conventional,first,1,21
442,525,5506,audio-button-response,28,209266,18450,group4,yes,prosody_paired_samples/NimishP/IR_Literal_office.wav,0,first,6,office,S5,non-conventional,first,1,22
443,526,7178,audio-button-response,29,216445,18450,group4,yes,prosody_paired_samples/NimishP/IR_Literal_phone.wav,0,first,7,phone,S5,non-conventional,first,1,23
444,527,6485,audio-button-response,30,222931,18450,group4,yes,prosody_paired_samples/NimishP/Literal_IR_piano.wav,1,second,8,piano,S5,conventional,second,1,24
445,528,5769,audio-button-response,31,228700,18450,group4,yes,prosody_paired_samples/MaiyiY/literal_IR_door.wav,1,second,4,door,S4,conventional,second,1,25
446,529,5534,audio-button-response,32,234234,18450,group4,yes,prosody_paired_samples/MaiyiY/IR_literal_phone.wav,0,first,7,phone,S4,non-conventional,first,1,26
447,530,6831,audio-button-response,33,241065,18450,group4,yes,prosody_paired_samples/MaiyiY/literal_IR_soup.wav,1,second,9,soup,S4,non-conventional,second,1,27
448,531,4855,audio-button-response,34,245921,18450,group4,yes,prosody_paired_samples/MaiyiY/IR_literal_piano.wav,0,first,8,piano,S4,conventional,first,1,28
449,532,5566,audio-button-response,35,251487,18450,group4,yes,prosody_paired_samples/MaiyiY/IR_literal_window.wav,0,first,11,window,S4,conventional,first,1,29
450,533,6392,audio-button-response,36,257879,18450,group4,yes,prosody_paired_samples/MaiyiY/IR_literal_Spanish.wav,0,first,10,spanish,S4,conventional,first,1,30
451,534,5909,audio-button-response,37,263788,18450,group4,yes,prosody_paired_samples/MaiyiY/IR_literal_box.wav,0,first,3,box,S4,conventional,first,1,31
452,535,6291,audio-button-response,38,270079,18450,group4,yes,prosody_paired_samples/MaiyiY/literal_IR_laptop.wav,0,second,5,laptop,S4,non-conventional,first,0,32
453,536,7373,audio-button-response,39,277452,18450,group4,yes,prosody_paired_samples/MaiyiY/literal_IR_back.wav,0,second,2,back,S4,non-conventional,first,0,33
454,537,6681,audio-button-response,40,284134,18450,group4,yes,prosody_paired_samples/MaiyiY/literal_IR_car.wav,1,second,1,car,S4,non-conventional,second,1,34
455,538,5504,audio-button-response,41,289638,18450,group4,yes,prosody_paired_samples/MaiyiY/literal_IR_office.wav,1,second,6,office,S4,non-conventional,second,1,35
456,539,5582,audio-button-response,42,295221,18450,group4,yes,prosody_paired_samples/MaiyiY/IR_literal_temp.wav,0,first,12,temperature,S4,conventional,first,1,36
457,540,6105,audio-button-response,43,301328,18450,group4,yes,prosody_paired_samples/DannyK/literal_IR_laptop.wav,0,second,5,laptop,S1,non-conventional,first,0,37
458,541,5430,audio-button-response,44,306759,18450,group4,yes,prosody_paired_samples/DannyK/literal_IR_window.wav,1,second,11,window,S1,conventional,second,1,38
459,542,5511,audio-button-response,45,312270,18450,group4,yes,prosody_paired_samples/DannyK/IR_literal_box.wav,0,first,3,box,S1,conventional,first,1,39
460,543,5309,audio-button-response,46,317580,18450,group4,yes,prosody_paired_samples/DannyK/IR_literal_door.wav,0,first,4,door,S1,conventional,first,1,40
461,544,5506,audio-button-response,47,323086,18450,group4,yes,prosody_paired_samples/DannyK/IR_literal_car.wav,0,first,1,car,S1,non-conventional,first,1,41
462,545,5722,audio-button-response,48,328809,18450,group4,yes,prosody_paired_samples/DannyK/IR_literal_soup.wav,0,first,9,soup,S1,non-conventional,first,1,42
463,546,5123,audio-button-response,49,333932,18450,group4,yes,prosody_paired_samples/DannyK/literal_IR_phone.wav,1,second,7,phone,S1,non-conventional,second,1,43
464,547,5950,audio-button-response,50,339882,18450,group4,yes,prosody_paired_samples/DannyK/literal_IR_Spanish.wav,0,second,10,spanish,S1,conventional,first,0,44
465,548,5622,audio-button-response,51,345504,18450,group4,yes,prosody_paired_samples/DannyK/literal_IR_temp.wav,0,second,12,temperature,S1,conventional,first,0,45
466,549,6050,audio-button-response,52,351554,18450,group4,yes,prosody_paired_samples/DannyK/IR_literal_piano.wav,0,first,8,piano,S1,conventional,first,1,46
467,550,6749,audio-button-response,53,358303,18450,group4,yes,prosody_paired_samples/DannyK/IR_literal_back.wav,1,first,2,back,S1,non-conventional,second,0,47
468,551,5623,audio-button-response,54,363926,18450,group4,yes,prosody_paired_samples/DannyK/literal_IR_office.wav,0,second,6,office,S1,non-conventional,first,0,48
469,552,5744,audio-button-response,55,369671,18450,group4,yes,prosody_paired_samples/KarenL/IR_literal_soup.wav,1,first,9,soup,S2,non-conventional,second,0,49
470,553,6649,audio-button-response,56,376321,18450,group4,yes,prosody_paired_samples/KarenL/IR_literal_temp.wav,0,first,12,temperature,S2,conventional,first,1,50
471,554,4709,audio-button-response,57,381031,18450,group4,yes,prosody_paired_samples/KarenL/literal_IR_door.wav,0,second,4,door,S2,conventional,first,0,51
472,555,7077,audio-button-response,58,388109,18450,group4,yes,prosody_paired_samples/KarenL/literal_IR_Spanish.wav,0,second,10,spanish,S2,conventional,first,0,52
473,556,5917,audio-button-response,59,394027,18450,group4,yes,prosody_paired_samples/KarenL/literal_IR_piano.wav,0,second,8,piano,S2,conventional,first,0,53
474,557,5481,audio-button-response,60,399508,18450,group4,yes,prosody_paired_samples/KarenL/literal_IR_back.wav,1,second,2,back,S2,non-conventional,second,1,54
475,558,5939,audio-button-response,61,405449,18450,group4,yes,prosody_paired_samples/KarenL/IR_literal_car.wav,0,first,1,car,S2,non-conventional,first,1,55
476,559,5557,audio-button-response,62,411006,18450,group4,yes,prosody_paired_samples/KarenL/IR_literal_window.wav,0,first,11,window,S2,conventional,first,1,56
477,560,5976,audio-button-response,63,416986,18450,group4,yes,prosody_paired_samples/KarenL/IR_literal_office.wav,1,first,6,office,S2,non-conventional,second,0,57
478,561,5558,audio-button-response,64,422546,18450,group4,yes,prosody_paired_samples/KarenL/IR_literal_phone.wav,0,first,7,phone,S2,non-conventional,first,1,58
479,562,5481,audio-button-response,65,428028,18450,group4,yes,prosody_paired_samples/KarenL/literal_IR_laptop.wav,1,second,5,laptop,S2,non-conventional,second,1,59
480,563,5765,audio-button-response,66,433793,18450,group4,yes,prosody_paired_samples/KarenL/literal_IR_box.wav,0,second,3,box,S2,conventional,first,0,60
481,575,16207,audio-button-response,7,110179,18646,group2,yes,prosody_paired_samples/DannyK/IR_literal_car.wav,0,first,1,car,S1,non-conventional,first,1,1
482,576,18823,audio-button-response,8,129003,18646,group2,yes,prosody_paired_samples/DannyK/literal_IR_window.wav,1,second,11,window,S1,conventional,second,1,2
483,577,11648,audio-button-response,9,140651,18646,group2,yes,prosody_paired_samples/DannyK/IR_literal_soup.wav,0,first,9,soup,S1,non-conventional,first,1,3
484,578,10808,audio-button-response,10,151459,18646,group2,yes,prosody_paired_samples/DannyK/literal_IR_office.wav,0,second,6,office,S1,non-conventional,first,0,4
485,579,11591,audio-button-response,11,163051,18646,group2,yes,prosody_paired_samples/DannyK/literal_IR_door.wav,1,second,4,door,S1,conventional,second,1,5
486,580,12592,audio-button-response,12,175643,18646,group2,yes,prosody_paired_samples/DannyK/literal_IR_temp.wav,0,second,12,temperature,S1,conventional,first,0,6
487,581,15727,audio-button-response,13,191370,18646,group2,yes,prosody_paired_samples/DannyK/literal_IR_phone.wav,0,second,7,phone,S1,non-conventional,first,0,7
488,582,12224,audio-button-response,14,203594,18646,group2,yes,prosody_paired_samples/DannyK/literal_IR_box.wav,1,second,3,box,S1,conventional,second,1,8
489,583,11584,audio-button-response,15,215178,18646,group2,yes,prosody_paired_samples/DannyK/IR_literal_back.wav,0,first,2,back,S1,non-conventional,first,1,9
490,584,8088,audio-button-response,16,223267,18646,group2,yes,prosody_paired_samples/DannyK/IR_literal_Spanish.wav,0,first,10,spanish,S1,conventional,first,1,10
491,585,9519,audio-button-response,17,232786,18646,group2,yes,prosody_paired_samples/DannyK/IR_literal_laptop.wav,0,first,5,laptop,S1,non-conventional,first,1,11
492,586,9096,audio-button-response,18,241882,18646,group2,yes,prosody_paired_samples/DannyK/IR_literal_piano.wav,0,first,8,piano,S1,conventional,first,1,12
493,587,8512,audio-button-response,19,250395,18646,group2,yes,prosody_paired_samples/KatieS/IR_Literal_door.wav,0,first,4,door,S3,conventional,first,1,13
494,588,6151,audio-button-response,20,256546,18646,group2,yes,prosody_paired_samples/KatieS/Literal_IR_window.wav,1,second,11,window,S3,conventional,second,1,14
495,589,9728,audio-button-response,21,266274,18646,group2,yes,prosody_paired_samples/KatieS/Literal_IR_soup.wav,1,second,9,soup,S3,non-conventional,second,1,15
496,590,5272,audio-button-response,22,271546,18646,group2,yes,prosody_paired_samples/KatieS/IR_Literal_box.wav,0,first,3,box,S3,conventional,first,1,16
497,591,15655,audio-button-response,23,287202,18646,group2,yes,prosody_paired_samples/KatieS/IR_Literal_car.wav,0,first,1,car,S3,non-conventional,first,1,17
498,592,10751,audio-button-response,24,297954,18646,group2,yes,prosody_paired_samples/KatieS/Literal_IR_back.wav,0,second,2,back,S3,non-conventional,first,0,18
499,593,7647,audio-button-response,25,305602,18646,group2,yes,prosody_paired_samples/KatieS/Literal_IR_laptop.wav,1,second,5,laptop,S3,non-conventional,second,1,19
500,594,11248,audio-button-response,26,316851,18646,group2,yes,prosody_paired_samples/KatieS/IR_Literal_office.wav,0,first,6,office,S3,non-conventional,first,1,20
501,595,7832,audio-button-response,27,324683,18646,group2,yes,prosody_paired_samples/KatieS/Literal_IR_phone.wav,1,second,7,phone,S3,non-conventional,second,1,21
502,596,7599,audio-button-response,28,332283,18646,group2,yes,prosody_paired_samples/KatieS/IR_Literal_Spanish.wav,0,first,10,spanish,S3,conventional,first,1,22
503,597,6335,audio-button-response,29,338619,18646,group2,yes,prosody_paired_samples/KatieS/IR_Literal_temp.wav,0,first,12,temperature,S3,conventional,first,1,23
504,598,9335,audio-button-response,30,347954,18646,group2,yes,prosody_paired_samples/KatieS/Literal_IR_piano.wav,1,second,8,piano,S3,conventional,second,1,24
505,599,7800,audio-button-response,31,355755,18646,group2,yes,prosody_paired_samples/KarenL/literal_IR_office.wav,1,second,6,office,S2,non-conventional,second,1,25
506,600,6255,audio-button-response,32,362010,18646,group2,yes,prosody_paired_samples/KarenL/IR_literal_laptop.wav,0,first,5,laptop,S2,non-conventional,first,1,26
507,601,10528,audio-button-response,33,372538,18646,group2,yes,prosody_paired_samples/KarenL/IR_literal_window.wav,1,first,11,window,S2,conventional,second,0,27
508,602,5641,audio-button-response,34,378179,18646,group2,yes,prosody_paired_samples/KarenL/literal_IR_phone.wav,0,second,7,phone,S2,non-conventional,first,0,28
509,603,8056,audio-button-response,35,386235,18646,group2,yes,prosody_paired_samples/KarenL/literal_IR_piano.wav,1,second,8,piano,S2,conventional,second,1,29
510,604,9919,audio-button-response,36,396155,18646,group2,yes,prosody_paired_samples/KarenL/literal_IR_door.wav,0,second,4,door,S2,conventional,first,0,30
511,605,6104,audio-button-response,37,402259,18646,group2,yes,prosody_paired_samples/KarenL/IR_literal_soup.wav,0,first,9,soup,S2,non-conventional,first,1,31
512,606,7248,audio-button-response,38,409507,18646,group2,yes,prosody_paired_samples/KarenL/literal_IR_car.wav,1,second,1,car,S2,non-conventional,second,1,32
513,607,5624,audio-button-response,39,415131,18646,group2,yes,prosody_paired_samples/KarenL/IR_literal_Spanish.wav,0,first,10,spanish,S2,conventional,first,1,33
514,608,5912,audio-button-response,40,421043,18646,group2,yes,prosody_paired_samples/KarenL/literal_IR_box.wav,1,second,3,box,S2,conventional,second,1,34
515,609,7280,audio-button-response,41,428323,18646,group2,yes,prosody_paired_samples/KarenL/IR_literal_temp.wav,0,first,12,temperature,S2,conventional,first,1,35
516,610,7871,audio-button-response,42,436194,18646,group2,yes,prosody_paired_samples/KarenL/IR_literal_back.wav,1,first,2,back,S2,non-conventional,second,0,36
517,611,8104,audio-button-response,43,444298,18646,group2,yes,prosody_paired_samples/MaiyiY/IR_literal_office.wav,1,first,6,office,S4,non-conventional,second,0,37
518,612,9688,audio-button-response,44,453986,18646,group2,yes,prosody_paired_samples/MaiyiY/IR_literal_phone.wav,1,first,7,phone,S4,non-conventional,second,0,38
519,613,6681,audio-button-response,45,460667,18646,group2,yes,prosody_paired_samples/MaiyiY/literal_IR_box.wav,1,second,3,box,S4,conventional,second,1,39
520,614,4871,audio-button-response,46,465538,18646,group2,yes,prosody_paired_samples/MaiyiY/IR_literal_door.wav,0,first,4,door,S4,conventional,first,1,40
521,615,6264,audio-button-response,47,471803,18646,group2,yes,prosody_paired_samples/MaiyiY/IR_literal_soup.wav,0,first,9,soup,S4,non-conventional,first,1,41
522,616,10727,audio-button-response,48,482530,18646,group2,yes,prosody_paired_samples/MaiyiY/literal_IR_Spanish.wav,1,second,10,spanish,S4,conventional,second,1,42
523,617,11496,audio-button-response,49,494026,18646,group2,yes,prosody_paired_samples/MaiyiY/IR_literal_window.wav,0,first,11,window,S4,conventional,first,1,43
524,618,8809,audio-button-response,50,502835,18646,group2,yes,prosody_paired_samples/MaiyiY/literal_IR_back.wav,1,second,2,back,S4,non-conventional,second,1,44
525,619,6287,audio-button-response,51,509123,18646,group2,yes,prosody_paired_samples/MaiyiY/literal_IR_piano.wav,1,second,8,piano,S4,conventional,second,1,45
526,620,7735,audio-button-response,52,516859,18646,group2,yes,prosody_paired_samples/MaiyiY/literal_IR_laptop.wav,1,second,5,laptop,S4,non-conventional,second,1,46
527,621,8143,audio-button-response,53,525003,18646,group2,yes,prosody_paired_samples/MaiyiY/literal_IR_temp.wav,1,second,12,temperature,S4,conventional,second,1,47
528,622,6575,audio-button-response,54,531578,18646,group2,yes,prosody_paired_samples/MaiyiY/IR_literal_car.wav,0,first,1,car,S4,non-conventional,first,1,48
529,623,6687,audio-button-response,55,538267,18646,group2,yes,prosody_paired_samples/NimishP/Literal_IR_piano.wav,1,second,8,piano,S5,conventional,second,1,49
530,624,7839,audio-button-response,56,546107,18646,group2,yes,prosody_paired_samples/NimishP/Literal_IR_back.wav,1,second,2,back,S5,non-conventional,second,1,50
531,625,5280,audio-button-response,57,551387,18646,group2,yes,prosody_paired_samples/NimishP/Literal_IR_phone.wav,1,second,7,phone,S5,non-conventional,second,1,51
532,626,5856,audio-button-response,58,557243,18646,group2,yes,prosody_paired_samples/NimishP/Literal_IR_office.wav,1,second,6,office,S5,non-conventional,second,1,52
533,627,5775,audio-button-response,59,563018,18646,group2,yes,prosody_paired_samples/NimishP/Literal_IR_laptop.wav,1,second,5,laptop,S5,non-conventional,second,1,53
534,628,6193,audio-button-response,60,569211,18646,group2,yes,prosody_paired_samples/NimishP/IR_Literal_car.wav,1,first,1,car,S5,non-conventional,second,0,54
535,629,10158,audio-button-response,61,579370,18646,group2,yes,prosody_paired_samples/NimishP/IR_Literal_door.wav,0,first,4,door,S5,conventional,first,1,55
536,630,5473,audio-button-response,62,584843,18646,group2,yes,prosody_paired_samples/NimishP/IR_Literal_window.wav,0,first,11,window,S5,conventional,first,1,56
537,631,5312,audio-button-response,63,590155,18646,group2,yes,prosody_paired_samples/NimishP/IR_Literal_temp.wav,0,first,12,temperature,S5,conventional,first,1,57
538,632,6488,audio-button-response,64,596643,18646,group2,yes,prosody_paired_samples/NimishP/IR_Literal_soup.wav,1,first,9,soup,S5,non-conventional,second,0,58
539,633,13583,audio-button-response,65,610227,18646,group2,yes,prosody_paired_samples/NimishP/IR_Literal_Spanish.wav,1,first,10,spanish,S5,conventional,second,0,59
540,634,5567,audio-button-response,66,615794,18646,group2,yes,prosody_paired_samples/NimishP/Literal_IR_box.wav,1,second,3,box,S5,conventional,second,1,60
541,646,7046,audio-button-response,7,905436,21749,group2,yes,prosody_paired_samples/KarenL/IR_literal_temp.wav,0,first,12,temperature,S2,conventional,first,1,1
542,647,12112,audio-button-response,8,917550,21749,group2,yes,prosody_paired_samples/KarenL/IR_literal_piano.wav,0,first,8,piano,S2,conventional,first,1,2
543,648,8786,audio-button-response,9,926337,21749,group2,yes,prosody_paired_samples/KarenL/IR_literal_laptop.wav,0,first,5,laptop,S2,non-conventional,first,1,3
544,649,8449,audio-button-response,10,934787,21749,group2,yes,prosody_paired_samples/KarenL/literal_IR_car.wav,0,second,1,car,S2,non-conventional,first,0,4
545,650,7249,audio-button-response,11,942036,21749,group2,yes,prosody_paired_samples/KarenL/IR_literal_Spanish.wav,0,first,10,spanish,S2,conventional,first,1,5
546,651,6131,audio-button-response,12,948168,21749,group2,yes,prosody_paired_samples/KarenL/IR_literal_soup.wav,1,first,9,soup,S2,non-conventional,second,0,6
547,652,6304,audio-button-response,13,954475,21749,group2,yes,prosody_paired_samples/KarenL/literal_IR_phone.wav,1,second,7,phone,S2,non-conventional,second,1,7
548,653,7764,audio-button-response,14,962240,21749,group2,yes,prosody_paired_samples/KarenL/IR_literal_back.wav,0,first,2,back,S2,non-conventional,first,1,8
549,654,5505,audio-button-response,15,967746,21749,group2,yes,prosody_paired_samples/KarenL/literal_IR_office.wav,1,second,6,office,S2,non-conventional,second,1,9
550,655,8953,audio-button-response,16,976700,21749,group2,yes,prosody_paired_samples/KarenL/literal_IR_box.wav,0,second,3,box,S2,conventional,first,0,10
551,656,7831,audio-button-response,17,984532,21749,group2,yes,prosody_paired_samples/KarenL/literal_IR_door.wav,0,second,4,door,S2,conventional,first,0,11
552,657,5660,audio-button-response,18,990192,21749,group2,yes,prosody_paired_samples/KarenL/literal_IR_window.wav,0,second,11,window,S2,conventional,first,0,12
553,658,6324,audio-button-response,19,996516,21749,group2,yes,prosody_paired_samples/MaiyiY/literal_IR_back.wav,1,second,2,back,S4,non-conventional,second,1,13
554,659,5875,audio-button-response,20,1002392,21749,group2,yes,prosody_paired_samples/MaiyiY/IR_literal_laptop.wav,0,first,5,laptop,S4,non-conventional,first,1,14
555,660,5819,audio-button-response,21,1008213,21749,group2,yes,prosody_paired_samples/MaiyiY/literal_IR_window.wav,1,second,11,window,S4,conventional,second,1,15
556,661,6212,audio-button-response,22,1014425,21749,group2,yes,prosody_paired_samples/MaiyiY/literal_IR_soup.wav,1,second,9,soup,S4,non-conventional,second,1,16
557,662,7600,audio-button-response,23,1022025,21749,group2,yes,prosody_paired_samples/MaiyiY/IR_literal_Spanish.wav,0,first,10,spanish,S4,conventional,first,1,17
558,663,5577,audio-button-response,24,1027603,21749,group2,yes,prosody_paired_samples/MaiyiY/literal_IR_temp.wav,1,second,12,temperature,S4,conventional,second,1,18
559,664,6443,audio-button-response,25,1034048,21749,group2,yes,prosody_paired_samples/MaiyiY/IR_literal_piano.wav,0,first,8,piano,S4,conventional,first,1,19
560,665,8697,audio-button-response,26,1042746,21749,group2,yes,prosody_paired_samples/MaiyiY/IR_literal_office.wav,0,first,6,office,S4,non-conventional,first,1,20
561,666,5632,audio-button-response,27,1048378,21749,group2,yes,prosody_paired_samples/MaiyiY/literal_IR_door.wav,1,second,4,door,S4,conventional,second,1,21
562,667,5672,audio-button-response,28,1054050,21749,group2,yes,prosody_paired_samples/MaiyiY/literal_IR_phone.wav,1,second,7,phone,S4,non-conventional,second,1,22
563,668,5734,audio-button-response,29,1059786,21749,group2,yes,prosody_paired_samples/MaiyiY/IR_literal_box.wav,0,first,3,box,S4,conventional,first,1,23
564,669,7427,audio-button-response,30,1067213,21749,group2,yes,prosody_paired_samples/MaiyiY/IR_literal_car.wav,1,first,1,car,S4,non-conventional,second,0,24
565,670,6214,audio-button-response,31,1073427,21749,group2,yes,prosody_paired_samples/NimishP/IR_Literal_car.wav,0,first,1,car,S5,non-conventional,first,1,25
566,671,6078,audio-button-response,32,1079506,21749,group2,yes,prosody_paired_samples/NimishP/Literal_IR_office.wav,1,second,6,office,S5,non-conventional,second,1,26
567,672,6716,audio-button-response,33,1086223,21749,group2,yes,prosody_paired_samples/NimishP/Literal_IR_Spanish.wav,1,second,10,spanish,S5,conventional,second,1,27
568,673,5869,audio-button-response,34,1092094,21749,group2,yes,prosody_paired_samples/NimishP/Literal_IR_soup.wav,1,second,9,soup,S5,non-conventional,second,1,28
569,674,5808,audio-button-response,35,1097904,21749,group2,yes,prosody_paired_samples/NimishP/IR_Literal_window.wav,0,first,11,window,S5,conventional,first,1,29
570,675,5445,audio-button-response,36,1103350,21749,group2,yes,prosody_paired_samples/NimishP/IR_Literal_piano.wav,0,first,8,piano,S5,conventional,first,1,30
571,676,5292,audio-button-response,37,1108642,21749,group2,yes,prosody_paired_samples/NimishP/Literal_IR_temp.wav,1,second,12,temperature,S5,conventional,second,1,31
572,677,6549,audio-button-response,38,1115192,21749,group2,yes,prosody_paired_samples/NimishP/IR_Literal_box.wav,0,first,3,box,S5,conventional,first,1,32
573,678,5570,audio-button-response,39,1120762,21749,group2,yes,prosody_paired_samples/NimishP/Literal_IR_back.wav,1,second,2,back,S5,non-conventional,second,1,33
574,679,5596,audio-button-response,40,1126358,21749,group2,yes,prosody_paired_samples/NimishP/IR_Literal_phone.wav,0,first,7,phone,S5,non-conventional,first,1,34
575,680,6860,audio-button-response,41,1133219,21749,group2,yes,prosody_paired_samples/NimishP/Literal_IR_laptop.wav,1,second,5,laptop,S5,non-conventional,second,1,35
576,681,4901,audio-button-response,42,1138120,21749,group2,yes,prosody_paired_samples/NimishP/IR_Literal_door.wav,0,first,4,door,S5,conventional,first,1,36
577,682,5984,audio-button-response,43,1144105,21749,group2,yes,prosody_paired_samples/DannyK/IR_literal_office.wav,0,first,6,office,S1,non-conventional,first,1,37
578,683,7296,audio-button-response,44,1151401,21749,group2,yes,prosody_paired_samples/DannyK/literal_IR_soup.wav,0,second,9,soup,S1,non-conventional,first,0,38
579,684,9061,audio-button-response,45,1160464,21749,group2,yes,prosody_paired_samples/DannyK/IR_literal_temp.wav,0,first,12,temperature,S1,conventional,first,1,39
580,685,7137,audio-button-response,46,1167601,21749,group2,yes,prosody_paired_samples/DannyK/IR_literal_car.wav,1,first,1,car,S1,non-conventional,second,0,40
581,686,9643,audio-button-response,47,1177246,21749,group2,yes,prosody_paired_samples/DannyK/IR_literal_phone.wav,1,first,7,phone,S1,non-conventional,second,0,41
582,687,8873,audio-button-response,48,1186119,21749,group2,yes,prosody_paired_samples/DannyK/literal_IR_door.wav,1,second,4,door,S1,conventional,second,1,42
583,688,5965,audio-button-response,49,1192086,21749,group2,yes,prosody_paired_samples/DannyK/literal_IR_box.wav,1,second,3,box,S1,conventional,second,1,43
584,689,7882,audio-button-response,50,1199969,21749,group2,yes,prosody_paired_samples/DannyK/IR_literal_Spanish.wav,1,first,10,spanish,S1,conventional,second,0,44
585,690,6125,audio-button-response,51,1206094,21749,group2,yes,prosody_paired_samples/DannyK/literal_IR_window.wav,1,second,11,window,S1,conventional,second,1,45
586,691,6695,audio-button-response,52,1212791,21749,group2,yes,prosody_paired_samples/DannyK/IR_literal_piano.wav,0,first,8,piano,S1,conventional,first,1,46
587,692,6275,audio-button-response,53,1219067,21749,group2,yes,prosody_paired_samples/DannyK/literal_IR_laptop.wav,1,second,5,laptop,S1,non-conventional,second,1,47
588,693,6349,audio-button-response,54,1225417,21749,group2,yes,prosody_paired_samples/DannyK/literal_IR_back.wav,1,second,2,back,S1,non-conventional,second,1,48
589,694,6117,audio-button-response,55,1231535,21749,group2,yes,prosody_paired_samples/KatieS/Literal_IR_laptop.wav,1,second,5,laptop,S3,non-conventional,second,1,49
590,695,5282,audio-button-response,56,1236818,21749,group2,yes,prosody_paired_samples/KatieS/IR_Literal_Spanish.wav,0,first,10,spanish,S3,conventional,first,1,50
591,696,10328,audio-button-response,57,1247146,21749,group2,yes,prosody_paired_samples/KatieS/Literal_IR_door.wav,1,second,4,door,S3,conventional,second,1,51
592,697,6177,audio-button-response,58,1253324,21749,group2,yes,prosody_paired_samples/KatieS/Literal_IR_office.wav,1,second,6,office,S3,non-conventional,second,1,52
593,698,5719,audio-button-response,59,1259044,21749,group2,yes,prosody_paired_samples/KatieS/Literal_IR_box.wav,1,second,3,box,S3,conventional,second,1,53
594,699,7828,audio-button-response,60,1266873,21749,group2,yes,prosody_paired_samples/KatieS/IR_Literal_window.wav,0,first,11,window,S3,conventional,first,1,54
595,700,6312,audio-button-response,61,1273187,21749,group2,yes,prosody_paired_samples/KatieS/IR_Literal_phone.wav,1,first,7,phone,S3,non-conventional,second,0,55
596,701,8458,audio-button-response,62,1281646,21749,group2,yes,prosody_paired_samples/KatieS/IR_Literal_back.wav,1,first,2,back,S3,non-conventional,second,0,56
597,702,6030,audio-button-response,63,1287677,21749,group2,yes,prosody_paired_samples/KatieS/IR_Literal_piano.wav,0,first,8,piano,S3,conventional,first,1,57
598,703,5890,audio-button-response,64,1293568,21749,group2,yes,prosody_paired_samples/KatieS/IR_Literal_soup.wav,1,first,9,soup,S3,non-conventional,second,0,58
599,704,7475,audio-button-response,65,1301044,21749,group2,yes,prosody_paired_samples/KatieS/Literal_IR_car.wav,1,second,1,car,S3,non-conventional,second,1,59
600,705,6010,audio-button-response,66,1307054,21749,group2,yes,prosody_paired_samples/KatieS/Literal_IR_temp.wav,1,second,12,temperature,S3,conventional,second,1,60
601,717,7970,audio-button-response,7,62398,2177,group2,yes,prosody_paired_samples/MaiyiY/IR_literal_soup.wav,0,first,9,soup,S4,non-conventional,first,1,1
602,718,6396,audio-button-response,8,68795,2177,group2,yes,prosody_paired_samples/MaiyiY/literal_IR_laptop.wav,1,second,5,laptop,S4,non-conventional,second,1,2
603,719,7200,audio-button-response,9,75996,2177,group2,yes,prosody_paired_samples/MaiyiY/IR_literal_office.wav,0,first,6,office,S4,non-conventional,first,1,3
604,720,10265,audio-button-response,10,86262,2177,group2,yes,prosody_paired_samples/MaiyiY/IR_literal_box.wav,0,first,3,box,S4,conventional,first,1,4
605,721,6425,audio-button-response,11,92688,2177,group2,yes,prosody_paired_samples/MaiyiY/IR_literal_temp.wav,0,first,12,temperature,S4,conventional,first,1,5
606,722,6641,audio-button-response,12,99329,2177,group2,yes,prosody_paired_samples/MaiyiY/literal_IR_car.wav,1,second,1,car,S4,non-conventional,second,1,6
607,723,5437,audio-button-response,13,104767,2177,group2,yes,prosody_paired_samples/MaiyiY/IR_literal_door.wav,0,first,4,door,S4,conventional,first,1,7
608,724,8490,audio-button-response,14,113257,2177,group2,yes,prosody_paired_samples/MaiyiY/literal_IR_phone.wav,1,second,7,phone,S4,non-conventional,second,1,8
609,725,6291,audio-button-response,15,119550,2177,group2,yes,prosody_paired_samples/MaiyiY/literal_IR_Spanish.wav,1,second,10,spanish,S4,conventional,second,1,9
610,726,11041,audio-button-response,16,130592,2177,group2,yes,prosody_paired_samples/MaiyiY/IR_literal_window.wav,0,first,11,window,S4,conventional,first,1,10
611,727,6252,audio-button-response,17,136845,2177,group2,yes,prosody_paired_samples/MaiyiY/literal_IR_back.wav,1,second,2,back,S4,non-conventional,second,1,11
612,728,4894,audio-button-response,18,141739,2177,group2,yes,prosody_paired_samples/MaiyiY/literal_IR_piano.wav,1,second,8,piano,S4,conventional,second,1,12
613,729,6659,audio-button-response,19,148399,2177,group2,yes,prosody_paired_samples/KarenL/literal_IR_car.wav,1,second,1,car,S2,non-conventional,second,1,13
614,730,5424,audio-button-response,20,153825,2177,group2,yes,prosody_paired_samples/KarenL/IR_literal_phone.wav,0,first,7,phone,S2,non-conventional,first,1,14
615,731,6606,audio-button-response,21,160431,2177,group2,yes,prosody_paired_samples/KarenL/literal_IR_box.wav,1,second,3,box,S2,conventional,second,1,15
616,732,6184,audio-button-response,22,166616,2177,group2,yes,prosody_paired_samples/KarenL/IR_literal_window.wav,1,first,11,window,S2,conventional,second,0,16
617,733,5727,audio-button-response,23,172345,2177,group2,yes,prosody_paired_samples/KarenL/IR_literal_laptop.wav,0,first,5,laptop,S2,non-conventional,first,1,17
618,734,6268,audio-button-response,24,178613,2177,group2,yes,prosody_paired_samples/KarenL/IR_literal_office.wav,0,first,6,office,S2,non-conventional,first,1,18
619,735,6688,audio-button-response,25,185302,2177,group2,yes,prosody_paired_samples/KarenL/IR_literal_temp.wav,1,first,12,temperature,S2,conventional,second,0,19
620,736,5131,audio-button-response,26,190435,2177,group2,yes,prosody_paired_samples/KarenL/literal_IR_door.wav,0,second,4,door,S2,conventional,first,0,20
621,737,6637,audio-button-response,27,197072,2177,group2,yes,prosody_paired_samples/KarenL/literal_IR_piano.wav,0,second,8,piano,S2,conventional,first,0,21
622,738,5399,audio-button-response,28,202473,2177,group2,yes,prosody_paired_samples/KarenL/literal_IR_back.wav,1,second,2,back,S2,non-conventional,second,1,22
623,739,4854,audio-button-response,29,207327,2177,group2,yes,prosody_paired_samples/KarenL/literal_IR_soup.wav,1,second,9,soup,S2,non-conventional,second,1,23
624,740,5983,audio-button-response,30,213311,2177,group2,yes,prosody_paired_samples/KarenL/IR_literal_Spanish.wav,0,first,10,spanish,S2,conventional,first,1,24
