,view_history,rt,trial_type,trial_index,time_elapsed,internal_node_id,subject,survey_code,group,passed_test,url,stimulus,type,button_pressed,answer,stimNum,topic,speaker,form,responses,response,correct,Gender,Native_Speaker,Music_Ability,Age,Mobile
0,"[{""page_index"":0,""viewing_time"":49890}]",49892.0,instructions,0,49894,0.0-0.0,13725,241693,group1,yes,,,,,,,,,,,,0,Male,Yes,4,31,No
1,,6925.0,external-html,1,57098,0.0-1.0,13725,241693,group1,yes,consent2.html,,,,,,,,,,,0,Male,Yes,4,31,No
2,"[{""page_index"":0,""viewing_time"":8029}]",8029.0,instructions,2,65131,0.0-2.0,13725,241693,group1,yes,,,,,,,,,,,,0,Male,Yes,4,31,No
3,,,video,3,74039,0.0-3.0,13725,241693,group1,yes,,"[""prosody_paired_samples/audio_calibration.mp4""]",calibration,,,,,,,,,0,Male,Yes,4,31,No
4,"[{""page_index"":0,""viewing_time"":2165}]",2166.0,instructions,4,76205,0.0-4.0,13725,241693,group1,yes,,,,,,,,,,,,0,Male,Yes,4,31,No
5,,4177.0,audio-button-response,5,80390,0.0-5.0,13725,241693,group1,yes,,prosody_paired_samples/ears_audio_check.wav,test,2.0,,,,,,,,0,Male,Yes,4,31,No
6,"[{""page_index"":0,""viewing_time"":1959},{""page_index"":1,""viewing_time"":27171},{""page_index"":2,""viewing_time"":5444}]",34575.0,instructions,6,116496,0.0-6.0-0.0,13725,241693,group1,yes,,,,,,,,,,,,0,Male,Yes,4,31,No
7,,6332.0,audio-button-response,7,122831,0.0-7.0-0.0,13725,241693,group1,yes,,prosody_paired_samples/KatieS/IR_Literal_door.wav,,0.0,first,4.0,door,Katie,modal,,first,1,Male,Yes,4,31,No
8,,6910.0,audio-button-response,8,129742,0.0-7.0-1.0,13725,241693,group1,yes,,prosody_paired_samples/KatieS/IR_Literal_box.wav,,0.0,first,3.0,box,Katie,modal,,first,1,Male,Yes,4,31,No
9,,6035.0,audio-button-response,9,135783,0.0-7.0-2.0,13725,241693,group1,yes,,prosody_paired_samples/KatieS/Literal_IR_window.wav,,1.0,second,11.0,window,Katie,modal,,second,1,Male,Yes,4,31,No
10,,12021.0,audio-button-response,10,147806,0.0-7.0-3.0,13725,241693,group1,yes,,prosody_paired_samples/KatieS/IR_Literal_laptop.wav,,1.0,first,5.0,laptop,Katie,indirect,,second,0,Male,Yes,4,31,No
11,,6605.0,audio-button-response,11,154413,0.0-7.0-4.0,13725,241693,group1,yes,,prosody_paired_samples/KatieS/Literal_IR_temp.wav,,1.0,second,12.0,temperature,Katie,modal,,second,1,Male,Yes,4,31,No
12,,6153.0,audio-button-response,12,160568,0.0-7.0-5.0,13725,241693,group1,yes,,prosody_paired_samples/KatieS/IR_Literal_Spanish.wav,,0.0,first,10.0,spanish,Katie,modal,,first,1,Male,Yes,4,31,No
13,,11059.0,audio-button-response,13,171628,0.0-7.0-6.0,13725,241693,group1,yes,,prosody_paired_samples/KatieS/Literal_IR_soup.wav,,1.0,second,9.0,soup,Katie,indirect,,second,1,Male,Yes,4,31,No
14,,9527.0,audio-button-response,14,181159,0.0-7.0-7.0,13725,241693,group1,yes,,prosody_paired_samples/KatieS/IR_Literal_back.wav,,0.0,first,2.0,back,Katie,indirect,,first,1,Male,Yes,4,31,No
15,,9100.0,audio-button-response,15,190262,0.0-7.0-8.0,13725,241693,group1,yes,,prosody_paired_samples/KatieS/Literal_IR_phone.wav,,0.0,second,7.0,phone,Katie,indirect,,first,0,Male,Yes,4,31,No
16,,7726.0,audio-button-response,16,197990,0.0-7.0-9.0,13725,241693,group1,yes,,prosody_paired_samples/KatieS/Literal_IR_office.wav,,1.0,second,6.0,office,Katie,indirect,,second,1,Male,Yes,4,31,No
17,,6897.0,audio-button-response,17,204890,0.0-7.0-10.0,13725,241693,group1,yes,,prosody_paired_samples/KatieS/Literal_IR_car.wav,,1.0,second,1.0,car,Katie,indirect,,second,1,Male,Yes,4,31,No
18,,6024.0,audio-button-response,18,210917,0.0-7.0-11.0,13725,241693,group1,yes,,prosody_paired_samples/KatieS/IR_Literal_piano.wav,,0.0,first,8.0,piano,Katie,modal,,first,1,Male,Yes,4,31,No
19,,7152.0,audio-button-response,19,218069,0.0-8.0-0.0,13725,241693,group1,yes,,prosody_paired_samples/MaiyiY/literal_IR_piano.wav,,1.0,second,8.0,piano,Maiyi,modal,,second,1,Male,Yes,4,31,No
20,,8353.0,audio-button-response,20,226424,0.0-8.0-1.0,13725,241693,group1,yes,,prosody_paired_samples/MaiyiY/IR_literal_temp.wav,,0.0,first,12.0,temperature,Maiyi,modal,,first,1,Male,Yes,4,31,No
21,,8489.0,audio-button-response,21,234921,0.0-8.0-2.0,13725,241693,group1,yes,,prosody_paired_samples/MaiyiY/literal_IR_car.wav,,1.0,second,1.0,car,Maiyi,indirect,,second,1,Male,Yes,4,31,No
22,,8862.0,audio-button-response,22,243799,0.0-8.0-3.0,13725,241693,group1,yes,,prosody_paired_samples/MaiyiY/literal_IR_laptop.wav,,0.0,second,5.0,laptop,Maiyi,indirect,,first,0,Male,Yes,4,31,No
23,,8118.0,audio-button-response,23,251934,0.0-8.0-4.0,13725,241693,group1,yes,,prosody_paired_samples/MaiyiY/literal_IR_window.wav,,1.0,second,11.0,window,Maiyi,modal,,second,1,Male,Yes,4,31,No
24,,6255.0,audio-button-response,24,258190,0.0-8.0-5.0,13725,241693,group1,yes,,prosody_paired_samples/MaiyiY/IR_literal_door.wav,,0.0,first,4.0,door,Maiyi,modal,,first,1,Male,Yes,4,31,No
25,,6237.0,audio-button-response,25,264429,0.0-8.0-6.0,13725,241693,group1,yes,,prosody_paired_samples/MaiyiY/literal_IR_office.wav,,0.0,second,6.0,office,Maiyi,indirect,,first,0,Male,Yes,4,31,No
26,,8277.0,audio-button-response,26,272708,0.0-8.0-7.0,13725,241693,group1,yes,,prosody_paired_samples/MaiyiY/IR_literal_Spanish.wav,,0.0,first,10.0,spanish,Maiyi,modal,,first,1,Male,Yes,4,31,No
27,,10788.0,audio-button-response,27,283501,0.0-8.0-8.0,13725,241693,group1,yes,,prosody_paired_samples/MaiyiY/IR_literal_box.wav,,0.0,first,3.0,box,Maiyi,modal,,first,1,Male,Yes,4,31,No
28,,10735.0,audio-button-response,28,294238,0.0-8.0-9.0,13725,241693,group1,yes,,prosody_paired_samples/MaiyiY/IR_literal_back.wav,,0.0,first,2.0,back,Maiyi,indirect,,first,1,Male,Yes,4,31,No
29,,8973.0,audio-button-response,29,303212,0.0-8.0-10.0,13725,241693,group1,yes,,prosody_paired_samples/MaiyiY/IR_literal_phone.wav,,1.0,first,7.0,phone,Maiyi,indirect,,second,0,Male,Yes,4,31,No
30,,9215.0,audio-button-response,30,312429,0.0-8.0-11.0,13725,241693,group1,yes,,prosody_paired_samples/MaiyiY/literal_IR_soup.wav,,0.0,second,9.0,soup,Maiyi,indirect,,first,0,Male,Yes,4,31,No
31,,7267.0,audio-button-response,31,319700,0.0-9.0-0.0,13725,241693,group1,yes,,prosody_paired_samples/KarenL/literal_IR_soup.wav,,0.0,second,9.0,soup,Karen,indirect,,first,0,Male,Yes,4,31,No
32,,12128.0,audio-button-response,32,331833,0.0-9.0-1.0,13725,241693,group1,yes,,prosody_paired_samples/KarenL/literal_IR_door.wav,,1.0,second,4.0,door,Karen,modal,,second,1,Male,Yes,4,31,No
33,,10863.0,audio-button-response,33,342698,0.0-9.0-2.0,13725,241693,group1,yes,,prosody_paired_samples/KarenL/IR_literal_temp.wav,,0.0,first,12.0,temperature,Karen,modal,,first,1,Male,Yes,4,31,No
34,,8020.0,audio-button-response,34,350720,0.0-9.0-3.0,13725,241693,group1,yes,,prosody_paired_samples/KarenL/IR_literal_piano.wav,,0.0,first,8.0,piano,Karen,modal,,first,1,Male,Yes,4,31,No
35,,7016.0,audio-button-response,35,357742,0.0-9.0-4.0,13725,241693,group1,yes,,prosody_paired_samples/KarenL/literal_IR_car.wav,,1.0,second,1.0,car,Karen,indirect,,second,1,Male,Yes,4,31,No
36,,9273.0,audio-button-response,36,367018,0.0-9.0-5.0,13725,241693,group1,yes,,prosody_paired_samples/KarenL/IR_literal_office.wav,,0.0,first,6.0,office,Karen,indirect,,first,1,Male,Yes,4,31,No
37,,7775.0,audio-button-response,37,374796,0.0-9.0-6.0,13725,241693,group1,yes,,prosody_paired_samples/KarenL/literal_IR_back.wav,,0.0,second,2.0,back,Karen,indirect,,first,0,Male,Yes,4,31,No
38,,6922.0,audio-button-response,38,381719,0.0-9.0-7.0,13725,241693,group1,yes,,prosody_paired_samples/KarenL/IR_literal_box.wav,,0.0,first,3.0,box,Karen,modal,,first,1,Male,Yes,4,31,No
39,,6594.0,audio-button-response,39,388315,0.0-9.0-8.0,13725,241693,group1,yes,,prosody_paired_samples/KarenL/IR_literal_Spanish.wav,,0.0,first,10.0,spanish,Karen,modal,,first,1,Male,Yes,4,31,No
40,,8085.0,audio-button-response,40,396402,0.0-9.0-9.0,13725,241693,group1,yes,,prosody_paired_samples/KarenL/IR_literal_phone.wav,,0.0,first,7.0,phone,Karen,indirect,,first,1,Male,Yes,4,31,No
41,,6168.0,audio-button-response,41,402572,0.0-9.0-10.0,13725,241693,group1,yes,,prosody_paired_samples/KarenL/literal_IR_laptop.wav,,0.0,second,5.0,laptop,Karen,indirect,,first,0,Male,Yes,4,31,No
42,,6121.0,audio-button-response,42,408695,0.0-9.0-11.0,13725,241693,group1,yes,,prosody_paired_samples/KarenL/literal_IR_window.wav,,0.0,second,11.0,window,Karen,modal,,first,0,Male,Yes,4,31,No
43,,6116.0,audio-button-response,43,414813,0.0-10.0-0.0,13725,241693,group1,yes,,prosody_paired_samples/DannyK/IR_literal_phone.wav,,0.0,first,7.0,phone,Danny,indirect,,first,1,Male,Yes,4,31,No
44,,18806.0,audio-button-response,44,433621,0.0-10.0-1.0,13725,241693,group1,yes,,prosody_paired_samples/DannyK/literal_IR_back.wav,,1.0,second,2.0,back,Danny,indirect,,second,1,Male,Yes,4,31,No
45,,8122.0,audio-button-response,45,441746,0.0-10.0-2.0,13725,241693,group1,yes,,prosody_paired_samples/DannyK/literal_IR_office.wav,,0.0,second,6.0,office,Danny,indirect,,first,0,Male,Yes,4,31,No
46,,15614.0,audio-button-response,46,457361,0.0-10.0-3.0,13725,241693,group1,yes,,prosody_paired_samples/DannyK/IR_literal_soup.wav,,0.0,first,9.0,soup,Danny,indirect,,first,1,Male,Yes,4,31,No
47,,17867.0,audio-button-response,47,475230,0.0-10.0-4.0,13725,241693,group1,yes,,prosody_paired_samples/DannyK/literal_IR_door.wav,,1.0,second,4.0,door,Danny,modal,,second,1,Male,Yes,4,31,No
48,,11218.0,audio-button-response,48,486450,0.0-10.0-5.0,13725,241693,group1,yes,,prosody_paired_samples/DannyK/IR_literal_Spanish.wav,,1.0,first,10.0,spanish,Danny,modal,,second,0,Male,Yes,4,31,No
49,,7128.0,audio-button-response,49,493580,0.0-10.0-6.0,13725,241693,group1,yes,,prosody_paired_samples/DannyK/literal_IR_piano.wav,,1.0,second,8.0,piano,Danny,modal,,second,1,Male,Yes,4,31,No
50,,7337.0,audio-button-response,50,500919,0.0-10.0-7.0,13725,241693,group1,yes,,prosody_paired_samples/DannyK/IR_literal_laptop.wav,,1.0,first,5.0,laptop,Danny,indirect,,second,0,Male,Yes,4,31,No
51,,10899.0,audio-button-response,51,511821,0.0-10.0-8.0,13725,241693,group1,yes,,prosody_paired_samples/DannyK/IR_literal_temp.wav,,1.0,first,12.0,temperature,Danny,modal,,second,0,Male,Yes,4,31,No
52,,5781.0,audio-button-response,52,517604,0.0-10.0-9.0,13725,241693,group1,yes,,prosody_paired_samples/DannyK/IR_literal_box.wav,,0.0,first,3.0,box,Danny,modal,,first,1,Male,Yes,4,31,No
53,,7062.0,audio-button-response,53,524669,0.0-10.0-10.0,13725,241693,group1,yes,,prosody_paired_samples/DannyK/literal_IR_window.wav,,1.0,second,11.0,window,Danny,modal,,second,1,Male,Yes,4,31,No
54,,6690.0,audio-button-response,54,531360,0.0-10.0-11.0,13725,241693,group1,yes,,prosody_paired_samples/DannyK/literal_IR_car.wav,,1.0,second,1.0,car,Danny,indirect,,second,1,Male,Yes,4,31,No
55,,7446.0,audio-button-response,55,538812,0.0-11.0-0.0,13725,241693,group1,yes,,prosody_paired_samples/NimishP/IR_Literal_back.wav,,0.0,first,2.0,back,Nimish,indirect,,first,1,Male,Yes,4,31,No
56,,6518.0,audio-button-response,56,545334,0.0-11.0-1.0,13725,241693,group1,yes,,prosody_paired_samples/NimishP/Literal_IR_car.wav,,1.0,second,1.0,car,Nimish,indirect,,second,1,Male,Yes,4,31,No
57,,5584.0,audio-button-response,57,550921,0.0-11.0-2.0,13725,241693,group1,yes,,prosody_paired_samples/NimishP/Literal_IR_door.wav,,1.0,second,4.0,door,Nimish,modal,,second,1,Male,Yes,4,31,No
58,,6578.0,audio-button-response,58,557501,0.0-11.0-3.0,13725,241693,group1,yes,,prosody_paired_samples/NimishP/Literal_IR_soup.wav,,1.0,second,9.0,soup,Nimish,indirect,,second,1,Male,Yes,4,31,No
59,,8325.0,audio-button-response,59,565828,0.0-11.0-4.0,13725,241693,group1,yes,,prosody_paired_samples/NimishP/IR_Literal_box.wav,,0.0,first,3.0,box,Nimish,modal,,first,1,Male,Yes,4,31,No
60,,6543.0,audio-button-response,60,572374,0.0-11.0-5.0,13725,241693,group1,yes,,prosody_paired_samples/NimishP/IR_Literal_office.wav,,0.0,first,6.0,office,Nimish,indirect,,first,1,Male,Yes,4,31,No
61,,8637.0,audio-button-response,61,581016,0.0-11.0-6.0,13725,241693,group1,yes,,prosody_paired_samples/NimishP/Literal_IR_Spanish.wav,,0.0,second,10.0,spanish,Nimish,modal,,first,0,Male,Yes,4,31,No
62,,6365.0,audio-button-response,62,587384,0.0-11.0-7.0,13725,241693,group1,yes,,prosody_paired_samples/NimishP/Literal_IR_temp.wav,,1.0,second,12.0,temperature,Nimish,modal,,second,1,Male,Yes,4,31,No
63,,9574.0,audio-button-response,63,596959,0.0-11.0-8.0,13725,241693,group1,yes,,prosody_paired_samples/NimishP/IR_Literal_piano.wav,,0.0,first,8.0,piano,Nimish,modal,,first,1,Male,Yes,4,31,No
64,,5831.0,audio-button-response,64,602792,0.0-11.0-9.0,13725,241693,group1,yes,,prosody_paired_samples/NimishP/IR_Literal_phone.wav,,0.0,first,7.0,phone,Nimish,indirect,,first,1,Male,Yes,4,31,No
65,,6934.0,audio-button-response,65,609729,0.0-11.0-10.0,13725,241693,group1,yes,,prosody_paired_samples/NimishP/Literal_IR_laptop.wav,,1.0,second,5.0,laptop,Nimish,indirect,,second,1,Male,Yes,4,31,No
66,,7777.0,audio-button-response,66,617507,0.0-11.0-11.0,13725,241693,group1,yes,,prosody_paired_samples/NimishP/IR_Literal_window.wav,,0.0,first,11.0,window,Nimish,modal,,first,1,Male,Yes,4,31,No
67,,15220.0,survey-text,67,632730,0.0-12.0,13725,241693,group1,yes,,,debrief,,,,,,,"{""Q0"":""whether men or women can more accurately convey meaning""}",,0,Male,Yes,4,31,No
68,,9764.0,survey-multi-choice,68,642522,0.0-13.0,13725,241693,group1,yes,,,demographic1,,,,,,,"{""Q0"":""Male"",""Q1"":""Yes"",""Q2"":""4"",""Q3"":""No""}",,0,Male,Yes,4,31,No
69,,2977.0,survey-text,69,645504,0.0-14.0,13725,241693,group1,yes,,,age,,,,,,,"{""Q0"":""31""}",,0,Male,Yes,4,31,No
70,,7032.0,survey-text,70,652538,0.0-15.0,13725,241693,group1,yes,,,,,,,,,,"{""Q0"":""241693""}",,0,Male,Yes,4,31,No
71,"[{""page_index"":0,""viewing_time"":10083}]",10084.0,instructions,0,10084,0.0-0.0,14172,978358,group3,yes,,,,,,,,,,,,0,Male,Yes,4,21,No
72,,6451.0,external-html,1,16794,0.0-1.0,14172,978358,group3,yes,consent2.html,,,,,,,,,,,0,Male,Yes,4,21,No
73,"[{""page_index"":0,""viewing_time"":3557}]",3557.0,instructions,2,20351,0.0-2.0,14172,978358,group3,yes,,,,,,,,,,,,0,Male,Yes,4,21,No
74,,,video,3,28995,0.0-3.0,14172,978358,group3,yes,,"[""prosody_paired_samples/audio_calibration.mp4""]",calibration,,,,,,,,,0,Male,Yes,4,21,No
75,"[{""page_index"":0,""viewing_time"":37348}]",37348.0,instructions,4,66343,0.0-4.0,14172,978358,group3,yes,,,,,,,,,,,,0,Male,Yes,4,21,No
76,,6607.0,audio-button-response,5,72951,0.0-5.0,14172,978358,group3,yes,,prosody_paired_samples/ears_audio_check.wav,test,2.0,,,,,,,,0,Male,Yes,4,21,No
77,"[{""page_index"":0,""viewing_time"":2541},{""page_index"":1,""viewing_time"":20741},{""page_index"":2,""viewing_time"":2579}]",25861.0,instructions,6,100154,0.0-6.0-0.0,14172,978358,group3,yes,,,,,,,,,,,,0,Male,Yes,4,21,No
78,,10660.0,audio-button-response,7,110815,0.0-7.0-0.0,14172,978358,group3,yes,,prosody_paired_samples/DannyK/IR_literal_car.wav,,0.0,first,1.0,car,Danny,indirect,,first,1,Male,Yes,4,21,No
79,,9999.0,audio-button-response,8,120814,0.0-7.0-1.0,14172,978358,group3,yes,,prosody_paired_samples/DannyK/literal_IR_window.wav,,1.0,second,11.0,window,Danny,modal,,second,1,Male,Yes,4,21,No
80,,6005.0,audio-button-response,9,126820,0.0-7.0-2.0,14172,978358,group3,yes,,prosody_paired_samples/DannyK/literal_IR_Spanish.wav,,0.0,second,10.0,spanish,Danny,modal,,first,0,Male,Yes,4,21,No
81,,6058.0,audio-button-response,10,132879,0.0-7.0-3.0,14172,978358,group3,yes,,prosody_paired_samples/DannyK/IR_literal_temp.wav,,0.0,first,12.0,temperature,Danny,modal,,first,1,Male,Yes,4,21,No
82,,5947.0,audio-button-response,11,138827,0.0-7.0-4.0,14172,978358,group3,yes,,prosody_paired_samples/DannyK/IR_literal_door.wav,,0.0,first,4.0,door,Danny,modal,,first,1,Male,Yes,4,21,No
83,,7296.0,audio-button-response,12,146124,0.0-7.0-5.0,14172,978358,group3,yes,,prosody_paired_samples/DannyK/IR_literal_soup.wav,,0.0,first,9.0,soup,Danny,indirect,,first,1,Male,Yes,4,21,No
84,,5947.0,audio-button-response,13,152071,0.0-7.0-6.0,14172,978358,group3,yes,,prosody_paired_samples/DannyK/literal_IR_laptop.wav,,0.0,second,5.0,laptop,Danny,indirect,,first,0,Male,Yes,4,21,No
85,,5697.0,audio-button-response,14,157768,0.0-7.0-7.0,14172,978358,group3,yes,,prosody_paired_samples/DannyK/literal_IR_piano.wav,,1.0,second,8.0,piano,Danny,modal,,second,1,Male,Yes,4,21,No
86,,7035.0,audio-button-response,15,164803,0.0-7.0-8.0,14172,978358,group3,yes,,prosody_paired_samples/DannyK/IR_literal_back.wav,,0.0,first,2.0,back,Danny,indirect,,first,1,Male,Yes,4,21,No
87,,5951.0,audio-button-response,16,170754,0.0-7.0-9.0,14172,978358,group3,yes,,prosody_paired_samples/DannyK/literal_IR_office.wav,,0.0,second,6.0,office,Danny,indirect,,first,0,Male,Yes,4,21,No
88,,5564.0,audio-button-response,17,176319,0.0-7.0-10.0,14172,978358,group3,yes,,prosody_paired_samples/DannyK/literal_IR_phone.wav,,0.0,second,7.0,phone,Danny,indirect,,first,0,Male,Yes,4,21,No
89,,5500.0,audio-button-response,18,181819,0.0-7.0-11.0,14172,978358,group3,yes,,prosody_paired_samples/DannyK/IR_literal_box.wav,,0.0,first,3.0,box,Danny,modal,,first,1,Male,Yes,4,21,No
90,,9026.0,audio-button-response,19,190845,0.0-8.0-0.0,14172,978358,group3,yes,,prosody_paired_samples/KatieS/Literal_IR_laptop.wav,,1.0,second,5.0,laptop,Katie,indirect,,second,1,Male,Yes,4,21,No
91,,4885.0,audio-button-response,20,195730,0.0-8.0-1.0,14172,978358,group3,yes,,prosody_paired_samples/KatieS/IR_Literal_window.wav,,0.0,first,11.0,window,Katie,modal,,first,1,Male,Yes,4,21,No
92,,6284.0,audio-button-response,21,202014,0.0-8.0-2.0,14172,978358,group3,yes,,prosody_paired_samples/KatieS/IR_Literal_soup.wav,,1.0,first,9.0,soup,Katie,indirect,,second,0,Male,Yes,4,21,No
93,,7082.0,audio-button-response,22,209096,0.0-8.0-3.0,14172,978358,group3,yes,,prosody_paired_samples/KatieS/IR_Literal_back.wav,,0.0,first,2.0,back,Katie,indirect,,first,1,Male,Yes,4,21,No
94,,4618.0,audio-button-response,23,213715,0.0-8.0-4.0,14172,978358,group3,yes,,prosody_paired_samples/KatieS/IR_Literal_box.wav,,0.0,first,3.0,box,Katie,modal,,first,1,Male,Yes,4,21,No
95,,5741.0,audio-button-response,24,219458,0.0-8.0-5.0,14172,978358,group3,yes,,prosody_paired_samples/KatieS/IR_Literal_temp.wav,,0.0,first,12.0,temperature,Katie,modal,,first,1,Male,Yes,4,21,No
96,,6866.0,audio-button-response,25,226324,0.0-8.0-6.0,14172,978358,group3,yes,,prosody_paired_samples/KatieS/IR_Literal_Spanish.wav,,0.0,first,10.0,spanish,Katie,modal,,first,1,Male,Yes,4,21,No
97,,8971.0,audio-button-response,26,235295,0.0-8.0-7.0,14172,978358,group3,yes,,prosody_paired_samples/KatieS/Literal_IR_door.wav,,1.0,second,4.0,door,Katie,modal,,second,1,Male,Yes,4,21,No
98,,7942.0,audio-button-response,27,243237,0.0-8.0-8.0,14172,978358,group3,yes,,prosody_paired_samples/KatieS/Literal_IR_piano.wav,,1.0,second,8.0,piano,Katie,modal,,second,1,Male,Yes,4,21,No
99,,7122.0,audio-button-response,28,250359,0.0-8.0-9.0,14172,978358,group3,yes,,prosody_paired_samples/KatieS/Literal_IR_phone.wav,,0.0,second,7.0,phone,Katie,indirect,,first,0,Male,Yes,4,21,No
100,,5693.0,audio-button-response,29,256052,0.0-8.0-10.0,14172,978358,group3,yes,,prosody_paired_samples/KatieS/Literal_IR_office.wav,,1.0,second,6.0,office,Katie,indirect,,second,1,Male,Yes,4,21,No
101,,5717.0,audio-button-response,30,261769,0.0-8.0-11.0,14172,978358,group3,yes,,prosody_paired_samples/KatieS/Literal_IR_car.wav,,1.0,second,1.0,car,Katie,indirect,,second,1,Male,Yes,4,21,No
102,,8117.0,audio-button-response,31,269887,0.0-9.0-0.0,14172,978358,group3,yes,,prosody_paired_samples/NimishP/IR_Literal_window.wav,,1.0,first,11.0,window,Nimish,modal,,second,0,Male,Yes,4,21,No
103,,5732.0,audio-button-response,32,275619,0.0-9.0-1.0,14172,978358,group3,yes,,prosody_paired_samples/NimishP/IR_Literal_car.wav,,0.0,first,1.0,car,Nimish,indirect,,first,1,Male,Yes,4,21,No
104,,6627.0,audio-button-response,33,282246,0.0-9.0-2.0,14172,978358,group3,yes,,prosody_paired_samples/NimishP/Literal_IR_phone.wav,,0.0,second,7.0,phone,Nimish,indirect,,first,0,Male,Yes,4,21,No
105,,5311.0,audio-button-response,34,287558,0.0-9.0-3.0,14172,978358,group3,yes,,prosody_paired_samples/NimishP/Literal_IR_piano.wav,,1.0,second,8.0,piano,Nimish,modal,,second,1,Male,Yes,4,21,No
106,,4969.0,audio-button-response,35,292527,0.0-9.0-4.0,14172,978358,group3,yes,,prosody_paired_samples/NimishP/Literal_IR_temp.wav,,1.0,second,12.0,temperature,Nimish,modal,,second,1,Male,Yes,4,21,No
107,,6153.0,audio-button-response,36,298680,0.0-9.0-5.0,14172,978358,group3,yes,,prosody_paired_samples/NimishP/IR_Literal_back.wav,,0.0,first,2.0,back,Nimish,indirect,,first,1,Male,Yes,4,21,No
108,,5604.0,audio-button-response,37,304284,0.0-9.0-6.0,14172,978358,group3,yes,,prosody_paired_samples/NimishP/IR_Literal_box.wav,,0.0,first,3.0,box,Nimish,modal,,first,1,Male,Yes,4,21,No
109,,5629.0,audio-button-response,38,309914,0.0-9.0-7.0,14172,978358,group3,yes,,prosody_paired_samples/NimishP/Literal_IR_office.wav,,0.0,second,6.0,office,Nimish,indirect,,first,0,Male,Yes,4,21,No
110,,5823.0,audio-button-response,39,315737,0.0-9.0-8.0,14172,978358,group3,yes,,prosody_paired_samples/NimishP/IR_Literal_Spanish.wav,,0.0,first,10.0,spanish,Nimish,modal,,first,1,Male,Yes,4,21,No
111,,6360.0,audio-button-response,40,322098,0.0-9.0-9.0,14172,978358,group3,yes,,prosody_paired_samples/NimishP/IR_Literal_laptop.wav,,0.0,first,5.0,laptop,Nimish,indirect,,first,1,Male,Yes,4,21,No
112,,5997.0,audio-button-response,41,328095,0.0-9.0-10.0,14172,978358,group3,yes,,prosody_paired_samples/NimishP/Literal_IR_soup.wav,,1.0,second,9.0,soup,Nimish,indirect,,second,1,Male,Yes,4,21,No
113,,4361.0,audio-button-response,42,332456,0.0-9.0-11.0,14172,978358,group3,yes,,prosody_paired_samples/NimishP/Literal_IR_door.wav,,1.0,second,4.0,door,Nimish,modal,,second,1,Male,Yes,4,21,No
114,,6223.0,audio-button-response,43,338680,0.0-10.0-0.0,14172,978358,group3,yes,,prosody_paired_samples/KarenL/IR_literal_piano.wav,,1.0,first,8.0,piano,Karen,modal,,second,0,Male,Yes,4,21,No
115,,6378.0,audio-button-response,44,345058,0.0-10.0-1.0,14172,978358,group3,yes,,prosody_paired_samples/KarenL/IR_literal_office.wav,,0.0,first,6.0,office,Karen,indirect,,first,1,Male,Yes,4,21,No
116,,11970.0,audio-button-response,45,357028,0.0-10.0-2.0,14172,978358,group3,yes,,prosody_paired_samples/KarenL/IR_literal_Spanish.wav,,1.0,first,10.0,spanish,Karen,modal,,second,0,Male,Yes,4,21,No
117,,5339.0,audio-button-response,46,362368,0.0-10.0-3.0,14172,978358,group3,yes,,prosody_paired_samples/KarenL/literal_IR_box.wav,,1.0,second,3.0,box,Karen,modal,,second,1,Male,Yes,4,21,No
118,,4513.0,audio-button-response,47,366882,0.0-10.0-4.0,14172,978358,group3,yes,,prosody_paired_samples/KarenL/literal_IR_soup.wav,,1.0,second,9.0,soup,Karen,indirect,,second,1,Male,Yes,4,21,No
119,,5373.0,audio-button-response,48,372255,0.0-10.0-5.0,14172,978358,group3,yes,,prosody_paired_samples/KarenL/IR_literal_back.wav,,0.0,first,2.0,back,Karen,indirect,,first,1,Male,Yes,4,21,No
120,,6089.0,audio-button-response,49,378345,0.0-10.0-6.0,14172,978358,group3,yes,,prosody_paired_samples/KarenL/literal_IR_car.wav,,0.0,second,1.0,car,Karen,indirect,,first,0,Male,Yes,4,21,No
121,,5790.0,audio-button-response,50,384135,0.0-10.0-7.0,14172,978358,group3,yes,,prosody_paired_samples/KarenL/IR_literal_temp.wav,,1.0,first,12.0,temperature,Karen,modal,,second,0,Male,Yes,4,21,No
122,,5689.0,audio-button-response,51,389824,0.0-10.0-8.0,14172,978358,group3,yes,,prosody_paired_samples/KarenL/IR_literal_door.wav,,0.0,first,4.0,door,Karen,modal,,first,1,Male,Yes,4,21,No
123,,4930.0,audio-button-response,52,394754,0.0-10.0-9.0,14172,978358,group3,yes,,prosody_paired_samples/KarenL/literal_IR_phone.wav,,0.0,second,7.0,phone,Karen,indirect,,first,0,Male,Yes,4,21,No
124,,8514.0,audio-button-response,53,403268,0.0-10.0-10.0,14172,978358,group3,yes,,prosody_paired_samples/KarenL/literal_IR_laptop.wav,,1.0,second,5.0,laptop,Karen,indirect,,second,1,Male,Yes,4,21,No
125,,6643.0,audio-button-response,54,409911,0.0-10.0-11.0,14172,978358,group3,yes,,prosody_paired_samples/KarenL/literal_IR_window.wav,,1.0,second,11.0,window,Karen,modal,,second,1,Male,Yes,4,21,No
126,,6194.0,audio-button-response,55,416105,0.0-11.0-0.0,14172,978358,group3,yes,,prosody_paired_samples/MaiyiY/literal_IR_laptop.wav,,1.0,second,5.0,laptop,Maiyi,indirect,,second,1,Male,Yes,4,21,No
127,,7848.0,audio-button-response,56,423953,0.0-11.0-1.0,14172,978358,group3,yes,,prosody_paired_samples/MaiyiY/IR_literal_door.wav,,0.0,first,4.0,door,Maiyi,modal,,first,1,Male,Yes,4,21,No
128,,9435.0,audio-button-response,57,433389,0.0-11.0-2.0,14172,978358,group3,yes,,prosody_paired_samples/MaiyiY/literal_IR_office.wav,,1.0,second,6.0,office,Maiyi,indirect,,second,1,Male,Yes,4,21,No
129,,5041.0,audio-button-response,58,438431,0.0-11.0-3.0,14172,978358,group3,yes,,prosody_paired_samples/MaiyiY/literal_IR_box.wav,,1.0,second,3.0,box,Maiyi,modal,,second,1,Male,Yes,4,21,No
130,,5998.0,audio-button-response,59,444430,0.0-11.0-4.0,14172,978358,group3,yes,,prosody_paired_samples/MaiyiY/literal_IR_car.wav,,1.0,second,1.0,car,Maiyi,indirect,,second,1,Male,Yes,4,21,No
131,,6650.0,audio-button-response,60,451081,0.0-11.0-5.0,14172,978358,group3,yes,,prosody_paired_samples/MaiyiY/IR_literal_piano.wav,,0.0,first,8.0,piano,Maiyi,modal,,first,1,Male,Yes,4,21,No
132,,5101.0,audio-button-response,61,456184,0.0-11.0-6.0,14172,978358,group3,yes,,prosody_paired_samples/MaiyiY/IR_literal_soup.wav,,0.0,first,9.0,soup,Maiyi,indirect,,first,1,Male,Yes,4,21,No
133,,6431.0,audio-button-response,62,462615,0.0-11.0-7.0,14172,978358,group3,yes,,prosody_paired_samples/MaiyiY/IR_literal_temp.wav,,1.0,first,12.0,temperature,Maiyi,modal,,second,0,Male,Yes,4,21,No
134,,5970.0,audio-button-response,63,468585,0.0-11.0-8.0,14172,978358,group3,yes,,prosody_paired_samples/MaiyiY/IR_literal_phone.wav,,1.0,first,7.0,phone,Maiyi,indirect,,second,0,Male,Yes,4,21,No
135,,6040.0,audio-button-response,64,474625,0.0-11.0-9.0,14172,978358,group3,yes,,prosody_paired_samples/MaiyiY/IR_literal_Spanish.wav,,1.0,first,10.0,spanish,Maiyi,modal,,second,0,Male,Yes,4,21,No
136,,6966.0,audio-button-response,65,481592,0.0-11.0-10.0,14172,978358,group3,yes,,prosody_paired_samples/MaiyiY/literal_IR_window.wav,,1.0,second,11.0,window,Maiyi,modal,,second,1,Male,Yes,4,21,No
137,,5375.0,audio-button-response,66,486969,0.0-11.0-11.0,14172,978358,group3,yes,,prosody_paired_samples/MaiyiY/literal_IR_back.wav,,1.0,second,2.0,back,Maiyi,indirect,,second,1,Male,Yes,4,21,No
138,,1995.0,survey-text,67,488965,0.0-12.0,14172,978358,group3,yes,,,debrief,,,,,,,"{""Q0"":""""}",,0,Male,Yes,4,21,No
139,,7591.0,survey-multi-choice,68,496561,0.0-13.0,14172,978358,group3,yes,,,demographic1,,,,,,,"{""Q0"":""Male"",""Q1"":""Yes"",""Q2"":""4"",""Q3"":""No""}",,0,Male,Yes,4,21,No
140,,2227.0,survey-text,69,498790,0.0-14.0,14172,978358,group3,yes,,,age,,,,,,,"{""Q0"":""21""}",,0,Male,Yes,4,21,No
141,,15959.0,survey-text,70,514749,0.0-15.0,14172,978358,group3,yes,,,,,,,,,,"{""Q0"":""978358""}",,0,Male,Yes,4,21,No
142,"[{""page_index"":0,""viewing_time"":14624}]",14625.0,instructions,0,14632,0.0-0.0,15647,426738,group2,yes,,,,,,,,,,,,0,Male,Yes,3,32,No
143,,9833.0,external-html,1,24826,0.0-1.0,15647,426738,group2,yes,consent2.html,,,,,,,,,,,0,Male,Yes,3,32,No
144,"[{""page_index"":0,""viewing_time"":3862}]",3863.0,instructions,2,28691,0.0-2.0,15647,426738,group2,yes,,,,,,,,,,,,0,Male,Yes,3,32,No
145,,,video,3,38182,0.0-3.0,15647,426738,group2,yes,,"[""prosody_paired_samples/audio_calibration.mp4""]",calibration,,,,,,,,,0,Male,Yes,3,32,No
146,"[{""page_index"":0,""viewing_time"":2330}]",2331.0,instructions,4,40514,0.0-4.0,15647,426738,group2,yes,,,,,,,,,,,,0,Male,Yes,3,32,No
147,,4859.0,audio-button-response,5,45437,0.0-5.0,15647,426738,group2,yes,,prosody_paired_samples/ears_audio_check.wav,test,2.0,,,,,,,,0,Male,Yes,3,32,No
148,"[{""page_index"":0,""viewing_time"":1641},{""page_index"":1,""viewing_time"":25016},{""page_index"":2,""viewing_time"":1320},{""page_index"":1,""viewing_time"":6976},{""page_index"":2,""viewing_time"":5247}]",40201.0,instructions,6,86977,0.0-6.0-0.0,15647,426738,group2,yes,,,,,,,,,,,,0,Male,Yes,3,32,No
149,,7350.0,audio-button-response,7,94332,0.0-7.0-0.0,15647,426738,group2,yes,,prosody_paired_samples/KatieS/IR_Literal_temp.wav,,0.0,first,12.0,temperature,Katie,modal,,first,1,Male,Yes,3,32,No
150,,8863.0,audio-button-response,8,103197,0.0-7.0-1.0,15647,426738,group2,yes,,prosody_paired_samples/KatieS/Literal_IR_piano.wav,,1.0,second,8.0,piano,Katie,modal,,second,1,Male,Yes,3,32,No
151,,8939.0,audio-button-response,9,112137,0.0-7.0-2.0,15647,426738,group2,yes,,prosody_paired_samples/KatieS/Literal_IR_phone.wav,,1.0,second,7.0,phone,Katie,indirect,,second,1,Male,Yes,3,32,No
152,,8902.0,audio-button-response,10,121042,0.0-7.0-3.0,15647,426738,group2,yes,,prosody_paired_samples/KatieS/Literal_IR_back.wav,,1.0,second,2.0,back,Katie,indirect,,second,1,Male,Yes,3,32,No
153,,6070.0,audio-button-response,11,127115,0.0-7.0-4.0,15647,426738,group2,yes,,prosody_paired_samples/KatieS/Literal_IR_soup.wav,,0.0,second,9.0,soup,Katie,indirect,,first,0,Male,Yes,3,32,No
154,,5620.0,audio-button-response,12,132737,0.0-7.0-5.0,15647,426738,group2,yes,,prosody_paired_samples/KatieS/IR_Literal_Spanish.wav,,0.0,first,10.0,spanish,Katie,modal,,first,1,Male,Yes,3,32,No
155,,7846.0,audio-button-response,13,140585,0.0-7.0-6.0,15647,426738,group2,yes,,prosody_paired_samples/KatieS/IR_Literal_laptop.wav,,0.0,first,5.0,laptop,Katie,indirect,,first,1,Male,Yes,3,32,No
156,,4950.0,audio-button-response,14,145537,0.0-7.0-7.0,15647,426738,group2,yes,,prosody_paired_samples/KatieS/Literal_IR_window.wav,,1.0,second,11.0,window,Katie,modal,,second,1,Male,Yes,3,32,No
157,,8967.0,audio-button-response,15,154506,0.0-7.0-8.0,15647,426738,group2,yes,,prosody_paired_samples/KatieS/Literal_IR_office.wav,,0.0,second,6.0,office,Katie,indirect,,first,0,Male,Yes,3,32,No
158,,5989.0,audio-button-response,16,160497,0.0-7.0-9.0,15647,426738,group2,yes,,prosody_paired_samples/KatieS/IR_Literal_door.wav,,0.0,first,4.0,door,Katie,modal,,first,1,Male,Yes,3,32,No
159,,7285.0,audio-button-response,17,167788,0.0-7.0-10.0,15647,426738,group2,yes,,prosody_paired_samples/KatieS/IR_Literal_box.wav,,0.0,first,3.0,box,Katie,modal,,first,1,Male,Yes,3,32,No
160,,7066.0,audio-button-response,18,174858,0.0-7.0-11.0,15647,426738,group2,yes,,prosody_paired_samples/KatieS/IR_Literal_car.wav,,0.0,first,1.0,car,Katie,indirect,,first,1,Male,Yes,3,32,No
161,,16301.0,audio-button-response,19,191163,0.0-8.0-0.0,15647,426738,group2,yes,,prosody_paired_samples/MaiyiY/literal_IR_laptop.wav,,1.0,second,5.0,laptop,Maiyi,indirect,,second,1,Male,Yes,3,32,No
162,,5253.0,audio-button-response,20,196418,0.0-8.0-1.0,15647,426738,group2,yes,,prosody_paired_samples/MaiyiY/IR_literal_phone.wav,,0.0,first,7.0,phone,Maiyi,indirect,,first,1,Male,Yes,3,32,No
163,,7548.0,audio-button-response,21,203970,0.0-8.0-2.0,15647,426738,group2,yes,,prosody_paired_samples/MaiyiY/IR_literal_back.wav,,1.0,first,2.0,back,Maiyi,indirect,,second,0,Male,Yes,3,32,No
164,,9197.0,audio-button-response,22,213170,0.0-8.0-3.0,15647,426738,group2,yes,,prosody_paired_samples/MaiyiY/literal_IR_door.wav,,1.0,second,4.0,door,Maiyi,modal,,second,1,Male,Yes,3,32,No
165,,8182.0,audio-button-response,23,221355,0.0-8.0-4.0,15647,426738,group2,yes,,prosody_paired_samples/MaiyiY/IR_literal_window.wav,,0.0,first,11.0,window,Maiyi,modal,,first,1,Male,Yes,3,32,No
166,,7349.0,audio-button-response,24,228706,0.0-8.0-5.0,15647,426738,group2,yes,,prosody_paired_samples/MaiyiY/literal_IR_Spanish.wav,,1.0,second,10.0,spanish,Maiyi,modal,,second,1,Male,Yes,3,32,No
167,,5181.0,audio-button-response,25,233890,0.0-8.0-6.0,15647,426738,group2,yes,,prosody_paired_samples/MaiyiY/literal_IR_piano.wav,,1.0,second,8.0,piano,Maiyi,modal,,second,1,Male,Yes,3,32,No
168,,5230.0,audio-button-response,26,239123,0.0-8.0-7.0,15647,426738,group2,yes,,prosody_paired_samples/MaiyiY/IR_literal_box.wav,,0.0,first,3.0,box,Maiyi,modal,,first,1,Male,Yes,3,32,No
169,,5327.0,audio-button-response,27,244451,0.0-8.0-8.0,15647,426738,group2,yes,,prosody_paired_samples/MaiyiY/literal_IR_temp.wav,,1.0,second,12.0,temperature,Maiyi,modal,,second,1,Male,Yes,3,32,No
170,,6653.0,audio-button-response,28,251106,0.0-8.0-9.0,15647,426738,group2,yes,,prosody_paired_samples/MaiyiY/IR_literal_car.wav,,0.0,first,1.0,car,Maiyi,indirect,,first,1,Male,Yes,3,32,No
171,,7525.0,audio-button-response,29,258634,0.0-8.0-10.0,15647,426738,group2,yes,,prosody_paired_samples/MaiyiY/literal_IR_office.wav,,0.0,second,6.0,office,Maiyi,indirect,,first,0,Male,Yes,3,32,No
172,,1340976.0,audio-button-response,30,1599613,0.0-8.0-11.0,15647,426738,group2,yes,,prosody_paired_samples/MaiyiY/IR_literal_soup.wav,,0.0,first,9.0,soup,Maiyi,indirect,,first,1,Male,Yes,3,32,No
173,,9044.0,audio-button-response,31,1608660,0.0-9.0-0.0,15647,426738,group2,yes,,prosody_paired_samples/NimishP/IR_Literal_temp.wav,,1.0,first,12.0,temperature,Nimish,modal,,second,0,Male,Yes,3,32,No
174,,10981.0,audio-button-response,32,1619644,0.0-9.0-1.0,15647,426738,group2,yes,,prosody_paired_samples/NimishP/Literal_IR_office.wav,,0.0,second,6.0,office,Nimish,indirect,,first,0,Male,Yes,3,32,No
175,,4974.0,audio-button-response,33,1624619,0.0-9.0-2.0,15647,426738,group2,yes,,prosody_paired_samples/NimishP/Literal_IR_laptop.wav,,1.0,second,5.0,laptop,Nimish,indirect,,second,1,Male,Yes,3,32,No
176,,11326.0,audio-button-response,34,1635950,0.0-9.0-3.0,15647,426738,group2,yes,,prosody_paired_samples/NimishP/IR_Literal_door.wav,,0.0,first,4.0,door,Nimish,modal,,first,1,Male,Yes,3,32,No
177,,12010.0,audio-button-response,35,1647964,0.0-9.0-4.0,15647,426738,group2,yes,,prosody_paired_samples/NimishP/Literal_IR_phone.wav,,1.0,second,7.0,phone,Nimish,indirect,,second,1,Male,Yes,3,32,No
178,,5981.0,audio-button-response,36,1653948,0.0-9.0-5.0,15647,426738,group2,yes,,prosody_paired_samples/NimishP/Literal_IR_soup.wav,,1.0,second,9.0,soup,Nimish,indirect,,second,1,Male,Yes,3,32,No
179,,6373.0,audio-button-response,37,1660323,0.0-9.0-6.0,15647,426738,group2,yes,,prosody_paired_samples/NimishP/Literal_IR_back.wav,,0.0,second,2.0,back,Nimish,indirect,,first,0,Male,Yes,3,32,No
180,,7365.0,audio-button-response,38,1667691,0.0-9.0-7.0,15647,426738,group2,yes,,prosody_paired_samples/NimishP/IR_Literal_window.wav,,0.0,first,11.0,window,Nimish,modal,,first,1,Male,Yes,3,32,No
181,,7037.0,audio-button-response,39,1674731,0.0-9.0-8.0,15647,426738,group2,yes,,prosody_paired_samples/NimishP/IR_Literal_piano.wav,,1.0,first,8.0,piano,Nimish,modal,,second,0,Male,Yes,3,32,No
182,,8997.0,audio-button-response,40,1683731,0.0-9.0-9.0,15647,426738,group2,yes,,prosody_paired_samples/NimishP/IR_Literal_Spanish.wav,,0.0,first,10.0,spanish,Nimish,modal,,first,1,Male,Yes,3,32,No
183,,8295.0,audio-button-response,41,1692027,0.0-9.0-10.0,15647,426738,group2,yes,,prosody_paired_samples/NimishP/Literal_IR_box.wav,,1.0,second,3.0,box,Nimish,modal,,second,1,Male,Yes,3,32,No
184,,12149.0,audio-button-response,42,1704179,0.0-9.0-11.0,15647,426738,group2,yes,,prosody_paired_samples/NimishP/IR_Literal_car.wav,,0.0,first,1.0,car,Nimish,indirect,,first,1,Male,Yes,3,32,No
185,,8286.0,audio-button-response,43,1712468,0.0-10.0-0.0,15647,426738,group2,yes,,prosody_paired_samples/KarenL/literal_IR_Spanish.wav,,1.0,second,10.0,spanish,Karen,modal,,second,1,Male,Yes,3,32,No
186,,14917.0,audio-button-response,44,1727389,0.0-10.0-1.0,15647,426738,group2,yes,,prosody_paired_samples/KarenL/IR_literal_back.wav,,1.0,first,2.0,back,Karen,indirect,,second,0,Male,Yes,3,32,No
187,,5156.0,audio-button-response,45,1732548,0.0-10.0-2.0,15647,426738,group2,yes,,prosody_paired_samples/KarenL/literal_IR_box.wav,,0.0,second,3.0,box,Karen,modal,,first,0,Male,Yes,3,32,No
188,,5813.0,audio-button-response,46,1738363,0.0-10.0-3.0,15647,426738,group2,yes,,prosody_paired_samples/KarenL/IR_literal_temp.wav,,1.0,first,12.0,temperature,Karen,modal,,second,0,Male,Yes,3,32,No
189,,5646.0,audio-button-response,47,1744011,0.0-10.0-4.0,15647,426738,group2,yes,,prosody_paired_samples/KarenL/literal_IR_window.wav,,0.0,second,11.0,window,Karen,modal,,first,0,Male,Yes,3,32,No
190,,7062.0,audio-button-response,48,1751075,0.0-10.0-5.0,15647,426738,group2,yes,,prosody_paired_samples/KarenL/literal_IR_phone.wav,,1.0,second,7.0,phone,Karen,indirect,,second,1,Male,Yes,3,32,No
191,,5886.0,audio-button-response,49,1756963,0.0-10.0-6.0,15647,426738,group2,yes,,prosody_paired_samples/KarenL/literal_IR_laptop.wav,,0.0,second,5.0,laptop,Karen,indirect,,first,0,Male,Yes,3,32,No
192,,5471.0,audio-button-response,50,1762436,0.0-10.0-7.0,15647,426738,group2,yes,,prosody_paired_samples/KarenL/literal_IR_piano.wav,,1.0,second,8.0,piano,Karen,modal,,second,1,Male,Yes,3,32,No
193,,6164.0,audio-button-response,51,1768602,0.0-10.0-8.0,15647,426738,group2,yes,,prosody_paired_samples/KarenL/IR_literal_car.wav,,0.0,first,1.0,car,Karen,indirect,,first,1,Male,Yes,3,32,No
194,,5464.0,audio-button-response,52,1774068,0.0-10.0-9.0,15647,426738,group2,yes,,prosody_paired_samples/KarenL/IR_literal_soup.wav,,0.0,first,9.0,soup,Karen,indirect,,first,1,Male,Yes,3,32,No
195,,5534.0,audio-button-response,53,1779603,0.0-10.0-10.0,15647,426738,group2,yes,,prosody_paired_samples/KarenL/IR_literal_door.wav,,0.0,first,4.0,door,Karen,modal,,first,1,Male,Yes,3,32,No
196,,5605.0,audio-button-response,54,1785211,0.0-10.0-11.0,15647,426738,group2,yes,,prosody_paired_samples/KarenL/IR_literal_office.wav,,1.0,first,6.0,office,Karen,indirect,,second,0,Male,Yes,3,32,No
197,,5709.0,audio-button-response,55,1790925,0.0-11.0-0.0,15647,426738,group2,yes,,prosody_paired_samples/DannyK/IR_literal_soup.wav,,0.0,first,9.0,soup,Danny,indirect,,first,1,Male,Yes,3,32,No
198,,20341.0,audio-button-response,56,1811267,0.0-11.0-1.0,15647,426738,group2,yes,,prosody_paired_samples/DannyK/IR_literal_office.wav,,1.0,first,6.0,office,Danny,indirect,,second,0,Male,Yes,3,32,No
199,,6581.0,audio-button-response,57,1817852,0.0-11.0-2.0,15647,426738,group2,yes,,prosody_paired_samples/DannyK/literal_IR_car.wav,,0.0,second,1.0,car,Danny,indirect,,first,0,Male,Yes,3,32,No
200,,8542.0,audio-button-response,58,1826397,0.0-11.0-3.0,15647,426738,group2,yes,,prosody_paired_samples/DannyK/literal_IR_laptop.wav,,1.0,second,5.0,laptop,Danny,indirect,,second,1,Male,Yes,3,32,No
201,,7972.0,audio-button-response,59,1834371,0.0-11.0-4.0,15647,426738,group2,yes,,prosody_paired_samples/DannyK/IR_literal_phone.wav,,0.0,first,7.0,phone,Danny,indirect,,first,1,Male,Yes,3,32,No
202,,5517.0,audio-button-response,60,1839891,0.0-11.0-5.0,15647,426738,group2,yes,,prosody_paired_samples/DannyK/IR_literal_box.wav,,1.0,first,3.0,box,Danny,modal,,second,0,Male,Yes,3,32,No
203,,6758.0,audio-button-response,61,1846651,0.0-11.0-6.0,15647,426738,group2,yes,,prosody_paired_samples/DannyK/IR_literal_door.wav,,0.0,first,4.0,door,Danny,modal,,first,1,Male,Yes,3,32,No
204,,7215.0,audio-button-response,62,1853868,0.0-11.0-7.0,15647,426738,group2,yes,,prosody_paired_samples/DannyK/IR_literal_Spanish.wav,,0.0,first,10.0,spanish,Danny,modal,,first,1,Male,Yes,3,32,No
205,,6749.0,audio-button-response,63,1860621,0.0-11.0-8.0,15647,426738,group2,yes,,prosody_paired_samples/DannyK/literal_IR_window.wav,,1.0,second,11.0,window,Danny,modal,,second,1,Male,Yes,3,32,No
206,,8637.0,audio-button-response,64,1869260,0.0-11.0-9.0,15647,426738,group2,yes,,prosody_paired_samples/DannyK/literal_IR_back.wav,,1.0,second,2.0,back,Danny,indirect,,second,1,Male,Yes,3,32,No
207,,10189.0,audio-button-response,65,1879452,0.0-11.0-10.0,15647,426738,group2,yes,,prosody_paired_samples/DannyK/literal_IR_piano.wav,,0.0,second,8.0,piano,Danny,modal,,first,0,Male,Yes,3,32,No
208,,8725.0,audio-button-response,66,1888180,0.0-11.0-11.0,15647,426738,group2,yes,,prosody_paired_samples/DannyK/literal_IR_temp.wav,,1.0,second,12.0,temperature,Danny,modal,,second,1,Male,Yes,3,32,No
209,,10437.0,survey-text,67,1898623,0.0-12.0,15647,426738,group2,yes,,,debrief,,,,,,,"{""Q0"":""not sure""}",,0,Male,Yes,3,32,No
210,,11435.0,survey-multi-choice,68,1910090,0.0-13.0,15647,426738,group2,yes,,,demographic1,,,,,,,"{""Q0"":""Male"",""Q1"":""Yes"",""Q2"":""3"",""Q3"":""No""}",,0,Male,Yes,3,32,No
211,,5403.0,survey-text,69,1915503,0.0-14.0,15647,426738,group2,yes,,,age,,,,,,,"{""Q0"":""32""}",,0,Male,Yes,3,32,No
212,,7268.0,survey-text,70,1922774,0.0-15.0,15647,426738,group2,yes,,,,,,,,,,"{""Q0"":""426738""}",,0,Male,Yes,3,32,No
213,"[{""page_index"":0,""viewing_time"":67620}]",67623.0,instructions,0,67626,0.0-0.0,16736,926511,group2,yes,,,,,,,,,,,,0,Female,Yes,2,54,No
214,,26954.0,external-html,1,94979,0.0-1.0,16736,926511,group2,yes,consent2.html,,,,,,,,,,,0,Female,Yes,2,54,No
215,"[{""page_index"":0,""viewing_time"":6324}]",6324.0,instructions,2,101303,0.0-2.0,16736,926511,group2,yes,,,,,,,,,,,,0,Female,Yes,2,54,No
216,,,video,3,110477,0.0-3.0,16736,926511,group2,yes,,"[""prosody_paired_samples/audio_calibration.mp4""]",calibration,,,,,,,,,0,Female,Yes,2,54,No
217,"[{""page_index"":0,""viewing_time"":7288}]",7290.0,instructions,4,117768,0.0-4.0,16736,926511,group2,yes,,,,,,,,,,,,0,Female,Yes,2,54,No
218,,4383.0,audio-button-response,5,122162,0.0-5.0,16736,926511,group2,yes,,prosody_paired_samples/ears_audio_check.wav,test,2.0,,,,,,,,0,Female,Yes,2,54,No
219,"[{""page_index"":0,""viewing_time"":3570},{""page_index"":1,""viewing_time"":31929},{""page_index"":2,""viewing_time"":6854}]",42354.0,instructions,6,168083,0.0-6.0-0.0,16736,926511,group2,yes,,,,,,,,,,,,0,Female,Yes,2,54,No
220,,9674.0,audio-button-response,7,177760,0.0-7.0-0.0,16736,926511,group2,yes,,prosody_paired_samples/NimishP/Literal_IR_temp.wav,,1.0,second,12.0,temperature,Nimish,modal,,second,1,Female,Yes,2,54,No
221,,8957.0,audio-button-response,8,186720,0.0-7.0-1.0,16736,926511,group2,yes,,prosody_paired_samples/NimishP/IR_Literal_laptop.wav,,0.0,first,5.0,laptop,Nimish,indirect,,first,1,Female,Yes,2,54,No
222,,9532.0,audio-button-response,9,196254,0.0-7.0-2.0,16736,926511,group2,yes,,prosody_paired_samples/NimishP/IR_Literal_box.wav,,0.0,first,3.0,box,Nimish,modal,,first,1,Female,Yes,2,54,No
223,,7121.0,audio-button-response,10,203378,0.0-7.0-3.0,16736,926511,group2,yes,,prosody_paired_samples/NimishP/IR_Literal_window.wav,,0.0,first,11.0,window,Nimish,modal,,first,1,Female,Yes,2,54,No
224,,6722.0,audio-button-response,11,210102,0.0-7.0-4.0,16736,926511,group2,yes,,prosody_paired_samples/NimishP/Literal_IR_Spanish.wav,,1.0,second,10.0,spanish,Nimish,modal,,second,1,Female,Yes,2,54,No
225,,5495.0,audio-button-response,12,215599,0.0-7.0-5.0,16736,926511,group2,yes,,prosody_paired_samples/NimishP/Literal_IR_phone.wav,,1.0,second,7.0,phone,Nimish,indirect,,second,1,Female,Yes,2,54,No
226,,7963.0,audio-button-response,13,223564,0.0-7.0-6.0,16736,926511,group2,yes,,prosody_paired_samples/NimishP/Literal_IR_car.wav,,1.0,second,1.0,car,Nimish,indirect,,second,1,Female,Yes,2,54,No
227,,6229.0,audio-button-response,14,229796,0.0-7.0-7.0,16736,926511,group2,yes,,prosody_paired_samples/NimishP/Literal_IR_office.wav,,1.0,second,6.0,office,Nimish,indirect,,second,1,Female,Yes,2,54,No
228,,9516.0,audio-button-response,15,239316,0.0-7.0-8.0,16736,926511,group2,yes,,prosody_paired_samples/NimishP/IR_Literal_back.wav,,0.0,first,2.0,back,Nimish,indirect,,first,1,Female,Yes,2,54,No
229,,6775.0,audio-button-response,16,246094,0.0-7.0-9.0,16736,926511,group2,yes,,prosody_paired_samples/NimishP/IR_Literal_piano.wav,,0.0,first,8.0,piano,Nimish,modal,,first,1,Female,Yes,2,54,No
230,,4940.0,audio-button-response,17,251036,0.0-7.0-10.0,16736,926511,group2,yes,,prosody_paired_samples/NimishP/IR_Literal_door.wav,,0.0,first,4.0,door,Nimish,modal,,first,1,Female,Yes,2,54,No
231,,5911.0,audio-button-response,18,256950,0.0-7.0-11.0,16736,926511,group2,yes,,prosody_paired_samples/NimishP/Literal_IR_soup.wav,,1.0,second,9.0,soup,Nimish,indirect,,second,1,Female,Yes,2,54,No
232,,6596.0,audio-button-response,19,263550,0.0-8.0-0.0,16736,926511,group2,yes,,prosody_paired_samples/KatieS/Literal_IR_back.wav,,1.0,second,2.0,back,Katie,indirect,,second,1,Female,Yes,2,54,No
233,,5658.0,audio-button-response,20,269212,0.0-8.0-1.0,16736,926511,group2,yes,,prosody_paired_samples/KatieS/IR_Literal_box.wav,,1.0,first,3.0,box,Katie,modal,,second,0,Female,Yes,2,54,No
234,,14874.0,audio-button-response,21,284089,0.0-8.0-2.0,16736,926511,group2,yes,,prosody_paired_samples/KatieS/Literal_IR_Spanish.wav,,0.0,second,10.0,spanish,Katie,modal,,first,0,Female,Yes,2,54,No
235,,6609.0,audio-button-response,22,290701,0.0-8.0-3.0,16736,926511,group2,yes,,prosody_paired_samples/KatieS/Literal_IR_phone.wav,,0.0,second,7.0,phone,Katie,indirect,,first,0,Female,Yes,2,54,No
236,,7092.0,audio-button-response,23,297795,0.0-8.0-4.0,16736,926511,group2,yes,,prosody_paired_samples/KatieS/IR_Literal_temp.wav,,1.0,first,12.0,temperature,Katie,modal,,second,0,Female,Yes,2,54,No
237,,5157.0,audio-button-response,24,302955,0.0-8.0-5.0,16736,926511,group2,yes,,prosody_paired_samples/KatieS/IR_Literal_piano.wav,,1.0,first,8.0,piano,Katie,modal,,second,0,Female,Yes,2,54,No
238,,7233.0,audio-button-response,25,310193,0.0-8.0-6.0,16736,926511,group2,yes,,prosody_paired_samples/KatieS/IR_Literal_car.wav,,0.0,first,1.0,car,Katie,indirect,,first,1,Female,Yes,2,54,No
239,,8048.0,audio-button-response,26,318244,0.0-8.0-7.0,16736,926511,group2,yes,,prosody_paired_samples/KatieS/Literal_IR_laptop.wav,,0.0,second,5.0,laptop,Katie,indirect,,first,0,Female,Yes,2,54,No
240,,4903.0,audio-button-response,27,323153,0.0-8.0-8.0,16736,926511,group2,yes,,prosody_paired_samples/KatieS/Literal_IR_door.wav,,0.0,second,4.0,door,Katie,modal,,first,0,Female,Yes,2,54,No
241,,7943.0,audio-button-response,28,331098,0.0-8.0-9.0,16736,926511,group2,yes,,prosody_paired_samples/KatieS/IR_Literal_office.wav,,0.0,first,6.0,office,Katie,indirect,,first,1,Female,Yes,2,54,No
242,,5051.0,audio-button-response,29,336152,0.0-8.0-10.0,16736,926511,group2,yes,,prosody_paired_samples/KatieS/IR_Literal_soup.wav,,1.0,first,9.0,soup,Katie,indirect,,second,0,Female,Yes,2,54,No
243,,4937.0,audio-button-response,30,341091,0.0-8.0-11.0,16736,926511,group2,yes,,prosody_paired_samples/KatieS/Literal_IR_window.wav,,1.0,second,11.0,window,Katie,modal,,second,1,Female,Yes,2,54,No
244,,5194.0,audio-button-response,31,346288,0.0-9.0-0.0,16736,926511,group2,yes,,prosody_paired_samples/KarenL/literal_IR_soup.wav,,1.0,second,9.0,soup,Karen,indirect,,second,1,Female,Yes,2,54,No
245,,5623.0,audio-button-response,32,351915,0.0-9.0-1.0,16736,926511,group2,yes,,prosody_paired_samples/KarenL/IR_literal_office.wav,,1.0,first,6.0,office,Karen,indirect,,second,0,Female,Yes,2,54,No
246,,5761.0,audio-button-response,33,357677,0.0-9.0-2.0,16736,926511,group2,yes,,prosody_paired_samples/KarenL/IR_literal_piano.wav,,1.0,first,8.0,piano,Karen,modal,,second,0,Female,Yes,2,54,No
247,,5975.0,audio-button-response,34,363656,0.0-9.0-3.0,16736,926511,group2,yes,,prosody_paired_samples/KarenL/IR_literal_door.wav,,0.0,first,4.0,door,Karen,modal,,first,1,Female,Yes,2,54,No
248,,5747.0,audio-button-response,35,369406,0.0-9.0-4.0,16736,926511,group2,yes,,prosody_paired_samples/KarenL/IR_literal_car.wav,,0.0,first,1.0,car,Karen,indirect,,first,1,Female,Yes,2,54,No
249,,6543.0,audio-button-response,36,375953,0.0-9.0-5.0,16736,926511,group2,yes,,prosody_paired_samples/KarenL/literal_IR_temp.wav,,1.0,second,12.0,temperature,Karen,modal,,second,1,Female,Yes,2,54,No
250,,5014.0,audio-button-response,37,380968,0.0-9.0-6.0,16736,926511,group2,yes,,prosody_paired_samples/KarenL/literal_IR_window.wav,,1.0,second,11.0,window,Karen,modal,,second,1,Female,Yes,2,54,No
251,,6205.0,audio-button-response,38,387176,0.0-9.0-7.0,16736,926511,group2,yes,,prosody_paired_samples/KarenL/IR_literal_laptop.wav,,0.0,first,5.0,laptop,Karen,indirect,,first,1,Female,Yes,2,54,No
252,,5017.0,audio-button-response,39,392196,0.0-9.0-8.0,16736,926511,group2,yes,,prosody_paired_samples/KarenL/literal_IR_phone.wav,,1.0,second,7.0,phone,Karen,indirect,,second,1,Female,Yes,2,54,No
253,,5967.0,audio-button-response,40,398166,0.0-9.0-9.0,16736,926511,group2,yes,,prosody_paired_samples/KarenL/literal_IR_box.wav,,1.0,second,3.0,box,Karen,modal,,second,1,Female,Yes,2,54,No
254,,5369.0,audio-button-response,41,403538,0.0-9.0-10.0,16736,926511,group2,yes,,prosody_paired_samples/KarenL/IR_literal_Spanish.wav,,1.0,first,10.0,spanish,Karen,modal,,second,0,Female,Yes,2,54,No
255,,4960.0,audio-button-response,42,408501,0.0-9.0-11.0,16736,926511,group2,yes,,prosody_paired_samples/KarenL/literal_IR_back.wav,,1.0,second,2.0,back,Karen,indirect,,second,1,Female,Yes,2,54,No
256,,5797.0,audio-button-response,43,414300,0.0-10.0-0.0,16736,926511,group2,yes,,prosody_paired_samples/MaiyiY/literal_IR_temp.wav,,1.0,second,12.0,temperature,Maiyi,modal,,second,1,Female,Yes,2,54,No
257,,5259.0,audio-button-response,44,419560,0.0-10.0-1.0,16736,926511,group2,yes,,prosody_paired_samples/MaiyiY/literal_IR_laptop.wav,,1.0,second,5.0,laptop,Maiyi,indirect,,second,1,Female,Yes,2,54,No
258,,6053.0,audio-button-response,45,425617,0.0-10.0-2.0,16736,926511,group2,yes,,prosody_paired_samples/MaiyiY/IR_literal_office.wav,,0.0,first,6.0,office,Maiyi,indirect,,first,1,Female,Yes,2,54,No
259,,5368.0,audio-button-response,46,430989,0.0-10.0-3.0,16736,926511,group2,yes,,prosody_paired_samples/MaiyiY/literal_IR_window.wav,,1.0,second,11.0,window,Maiyi,modal,,second,1,Female,Yes,2,54,No
260,,5988.0,audio-button-response,47,436978,0.0-10.0-4.0,16736,926511,group2,yes,,prosody_paired_samples/MaiyiY/IR_literal_Spanish.wav,,0.0,first,10.0,spanish,Maiyi,modal,,first,1,Female,Yes,2,54,No
261,,5396.0,audio-button-response,48,442377,0.0-10.0-5.0,16736,926511,group2,yes,,prosody_paired_samples/MaiyiY/literal_IR_phone.wav,,0.0,second,7.0,phone,Maiyi,indirect,,first,0,Female,Yes,2,54,No
262,,5209.0,audio-button-response,49,447589,0.0-10.0-6.0,16736,926511,group2,yes,,prosody_paired_samples/MaiyiY/IR_literal_box.wav,,0.0,first,3.0,box,Maiyi,modal,,first,1,Female,Yes,2,54,No
263,,5573.0,audio-button-response,50,453167,0.0-10.0-7.0,16736,926511,group2,yes,,prosody_paired_samples/MaiyiY/IR_literal_car.wav,,1.0,first,1.0,car,Maiyi,indirect,,second,0,Female,Yes,2,54,No
264,,5432.0,audio-button-response,51,458600,0.0-10.0-8.0,16736,926511,group2,yes,,prosody_paired_samples/MaiyiY/IR_literal_soup.wav,,1.0,first,9.0,soup,Maiyi,indirect,,second,0,Female,Yes,2,54,No
265,,4918.0,audio-button-response,52,463520,0.0-10.0-9.0,16736,926511,group2,yes,,prosody_paired_samples/MaiyiY/literal_IR_door.wav,,1.0,second,4.0,door,Maiyi,modal,,second,1,Female,Yes,2,54,No
266,,5068.0,audio-button-response,53,468591,0.0-10.0-10.0,16736,926511,group2,yes,,prosody_paired_samples/MaiyiY/literal_IR_back.wav,,1.0,second,2.0,back,Maiyi,indirect,,second,1,Female,Yes,2,54,No
267,,4488.0,audio-button-response,54,473081,0.0-10.0-11.0,16736,926511,group2,yes,,prosody_paired_samples/MaiyiY/IR_literal_piano.wav,,1.0,first,8.0,piano,Maiyi,modal,,second,0,Female,Yes,2,54,No
268,,5835.0,audio-button-response,55,478919,0.0-11.0-0.0,16736,926511,group2,yes,,prosody_paired_samples/DannyK/literal_IR_piano.wav,,0.0,second,8.0,piano,Danny,modal,,first,0,Female,Yes,2,54,No
269,,7369.0,audio-button-response,56,486291,0.0-11.0-1.0,16736,926511,group2,yes,,prosody_paired_samples/DannyK/IR_literal_temp.wav,,1.0,first,12.0,temperature,Danny,modal,,second,0,Female,Yes,2,54,No
270,,6037.0,audio-button-response,57,492331,0.0-11.0-2.0,16736,926511,group2,yes,,prosody_paired_samples/DannyK/literal_IR_office.wav,,1.0,second,6.0,office,Danny,indirect,,second,1,Female,Yes,2,54,No
271,,5380.0,audio-button-response,58,497713,0.0-11.0-3.0,16736,926511,group2,yes,,prosody_paired_samples/DannyK/literal_IR_laptop.wav,,1.0,second,5.0,laptop,Danny,indirect,,second,1,Female,Yes,2,54,No
272,,5298.0,audio-button-response,59,503014,0.0-11.0-4.0,16736,926511,group2,yes,,prosody_paired_samples/DannyK/IR_literal_back.wav,,1.0,first,2.0,back,Danny,indirect,,second,0,Female,Yes,2,54,No
273,,5835.0,audio-button-response,60,508852,0.0-11.0-5.0,16736,926511,group2,yes,,prosody_paired_samples/DannyK/literal_IR_car.wav,,0.0,second,1.0,car,Danny,indirect,,first,0,Female,Yes,2,54,No
274,,4969.0,audio-button-response,61,513823,0.0-11.0-6.0,16736,926511,group2,yes,,prosody_paired_samples/DannyK/IR_literal_window.wav,,1.0,first,11.0,window,Danny,modal,,second,0,Female,Yes,2,54,No
275,,5493.0,audio-button-response,62,519317,0.0-11.0-7.0,16736,926511,group2,yes,,prosody_paired_samples/DannyK/literal_IR_box.wav,,1.0,second,3.0,box,Danny,modal,,second,1,Female,Yes,2,54,No
276,,6676.0,audio-button-response,63,525996,0.0-11.0-8.0,16736,926511,group2,yes,,prosody_paired_samples/DannyK/literal_IR_Spanish.wav,,0.0,second,10.0,spanish,Danny,modal,,first,0,Female,Yes,2,54,No
277,,6854.0,audio-button-response,64,532853,0.0-11.0-9.0,16736,926511,group2,yes,,prosody_paired_samples/DannyK/IR_literal_phone.wav,,1.0,first,7.0,phone,Danny,indirect,,second,0,Female,Yes,2,54,No
278,,5754.0,audio-button-response,65,538609,0.0-11.0-10.0,16736,926511,group2,yes,,prosody_paired_samples/DannyK/IR_literal_soup.wav,,0.0,first,9.0,soup,Danny,indirect,,first,1,Female,Yes,2,54,No
279,,5589.0,audio-button-response,66,544202,0.0-11.0-11.0,16736,926511,group2,yes,,prosody_paired_samples/DannyK/IR_literal_door.wav,,1.0,first,4.0,door,Danny,modal,,second,0,Female,Yes,2,54,No
280,,24454.0,survey-text,67,568660,0.0-12.0,16736,926511,group2,yes,,,debrief,,,,,,,"{""Q0"":""Not sure. Interesting though...""}",,0,Female,Yes,2,54,No
281,,20701.0,survey-multi-choice,68,589383,0.0-13.0,16736,926511,group2,yes,,,demographic1,,,,,,,"{""Q0"":""Female"",""Q1"":""Yes"",""Q2"":""2"",""Q3"":""No""}",,0,Female,Yes,2,54,No
282,,4680.0,survey-text,69,594073,0.0-14.0,16736,926511,group2,yes,,,age,,,,,,,"{""Q0"":""54""}",,0,Female,Yes,2,54,No
283,,42793.0,survey-text,70,636869,0.0-15.0,16736,926511,group2,yes,,,,,,,,,,"{""Q0"":""""}",,0,Female,Yes,2,54,No
284,"[{""page_index"":0,""viewing_time"":17410}]",17410.0,instructions,0,17411,0.0-0.0,16783,452166,group1,yes,,,,,,,,,,,,0,Male,Yes,4,30,No
285,,6783.0,external-html,1,24385,0.0-1.0,16783,452166,group1,yes,consent2.html,,,,,,,,,,,0,Male,Yes,4,30,No
286,"[{""page_index"":0,""viewing_time"":3146}]",3147.0,instructions,2,27532,0.0-2.0,16783,452166,group1,yes,,,,,,,,,,,,0,Male,Yes,4,30,No
287,,,video,3,36051,0.0-3.0,16783,452166,group1,yes,,"[""prosody_paired_samples/audio_calibration.mp4""]",calibration,,,,,,,,,0,Male,Yes,4,30,No
288,"[{""page_index"":0,""viewing_time"":2977}]",2977.0,instructions,4,39029,0.0-4.0,16783,452166,group1,yes,,,,,,,,,,,,0,Male,Yes,4,30,No
289,,3424.0,audio-button-response,5,42454,0.0-5.0,16783,452166,group1,yes,,prosody_paired_samples/ears_audio_check.wav,test,2.0,,,,,,,,0,Male,Yes,4,30,No
290,"[{""page_index"":0,""viewing_time"":1421},{""page_index"":1,""viewing_time"":20600},{""page_index"":2,""viewing_time"":6438}]",28459.0,instructions,6,72201,0.0-6.0-0.0,16783,452166,group1,yes,,,,,,,,,,,,0,Male,Yes,4,30,No
291,,5265.0,audio-button-response,7,77468,0.0-7.0-0.0,16783,452166,group1,yes,,prosody_paired_samples/DannyK/literal_IR_box.wav,,0.0,second,3.0,box,Danny,modal,,first,0,Male,Yes,4,30,No
292,,7975.0,audio-button-response,8,85444,0.0-7.0-1.0,16783,452166,group1,yes,,prosody_paired_samples/DannyK/IR_literal_back.wav,,1.0,first,2.0,back,Danny,indirect,,second,0,Male,Yes,4,30,No
293,,5893.0,audio-button-response,9,91338,0.0-7.0-2.0,16783,452166,group1,yes,,prosody_paired_samples/DannyK/IR_literal_laptop.wav,,0.0,first,5.0,laptop,Danny,indirect,,first,1,Male,Yes,4,30,No
294,,7604.0,audio-button-response,10,98943,0.0-7.0-3.0,16783,452166,group1,yes,,prosody_paired_samples/DannyK/literal_IR_temp.wav,,0.0,second,12.0,temperature,Danny,modal,,first,0,Male,Yes,4,30,No
295,,6173.0,audio-button-response,11,105116,0.0-7.0-4.0,16783,452166,group1,yes,,prosody_paired_samples/DannyK/IR_literal_office.wav,,0.0,first,6.0,office,Danny,indirect,,first,1,Male,Yes,4,30,No
296,,5557.0,audio-button-response,12,110673,0.0-7.0-5.0,16783,452166,group1,yes,,prosody_paired_samples/DannyK/literal_IR_window.wav,,0.0,second,11.0,window,Danny,modal,,first,0,Male,Yes,4,30,No
297,,5012.0,audio-button-response,13,115686,0.0-7.0-6.0,16783,452166,group1,yes,,prosody_paired_samples/DannyK/literal_IR_phone.wav,,1.0,second,7.0,phone,Danny,indirect,,second,1,Male,Yes,4,30,No
298,,5083.0,audio-button-response,14,120769,0.0-7.0-7.0,16783,452166,group1,yes,,prosody_paired_samples/DannyK/literal_IR_piano.wav,,0.0,second,8.0,piano,Danny,modal,,first,0,Male,Yes,4,30,No
299,,5572.0,audio-button-response,15,126342,0.0-7.0-8.0,16783,452166,group1,yes,,prosody_paired_samples/DannyK/literal_IR_car.wav,,0.0,second,1.0,car,Danny,indirect,,first,0,Male,Yes,4,30,No
300,,4800.0,audio-button-response,16,131142,0.0-7.0-9.0,16783,452166,group1,yes,,prosody_paired_samples/DannyK/IR_literal_soup.wav,,0.0,first,9.0,soup,Danny,indirect,,first,1,Male,Yes,4,30,No
301,,6491.0,audio-button-response,17,137634,0.0-7.0-10.0,16783,452166,group1,yes,,prosody_paired_samples/DannyK/IR_literal_door.wav,,1.0,first,4.0,door,Danny,modal,,second,0,Male,Yes,4,30,No
302,,5563.0,audio-button-response,18,143199,0.0-7.0-11.0,16783,452166,group1,yes,,prosody_paired_samples/DannyK/IR_literal_Spanish.wav,,0.0,first,10.0,spanish,Danny,modal,,first,1,Male,Yes,4,30,No
303,,5611.0,audio-button-response,19,148810,0.0-8.0-0.0,16783,452166,group1,yes,,prosody_paired_samples/MaiyiY/literal_IR_office.wav,,0.0,second,6.0,office,Maiyi,indirect,,first,0,Male,Yes,4,30,No
304,,5393.0,audio-button-response,20,154204,0.0-8.0-1.0,16783,452166,group1,yes,,prosody_paired_samples/MaiyiY/literal_IR_car.wav,,1.0,second,1.0,car,Maiyi,indirect,,second,1,Male,Yes,4,30,No
305,,5520.0,audio-button-response,21,159724,0.0-8.0-2.0,16783,452166,group1,yes,,prosody_paired_samples/MaiyiY/IR_literal_temp.wav,,0.0,first,12.0,temperature,Maiyi,modal,,first,1,Male,Yes,4,30,No
306,,5007.0,audio-button-response,22,164732,0.0-8.0-3.0,16783,452166,group1,yes,,prosody_paired_samples/MaiyiY/literal_IR_door.wav,,1.0,second,4.0,door,Maiyi,modal,,second,1,Male,Yes,4,30,No
307,,5345.0,audio-button-response,23,170077,0.0-8.0-4.0,16783,452166,group1,yes,,prosody_paired_samples/MaiyiY/IR_literal_back.wav,,0.0,first,2.0,back,Maiyi,indirect,,first,1,Male,Yes,4,30,No
308,,5140.0,audio-button-response,24,175217,0.0-8.0-5.0,16783,452166,group1,yes,,prosody_paired_samples/MaiyiY/literal_IR_piano.wav,,1.0,second,8.0,piano,Maiyi,modal,,second,1,Male,Yes,4,30,No
309,,6098.0,audio-button-response,25,181316,0.0-8.0-6.0,16783,452166,group1,yes,,prosody_paired_samples/MaiyiY/IR_literal_laptop.wav,,0.0,first,5.0,laptop,Maiyi,indirect,,first,1,Male,Yes,4,30,No
310,,5182.0,audio-button-response,26,186498,0.0-8.0-7.0,16783,452166,group1,yes,,prosody_paired_samples/MaiyiY/literal_IR_phone.wav,,0.0,second,7.0,phone,Maiyi,indirect,,first,0,Male,Yes,4,30,No
311,,5298.0,audio-button-response,27,191797,0.0-8.0-8.0,16783,452166,group1,yes,,prosody_paired_samples/MaiyiY/IR_literal_soup.wav,,0.0,first,9.0,soup,Maiyi,indirect,,first,1,Male,Yes,4,30,No
312,,5050.0,audio-button-response,28,196847,0.0-8.0-9.0,16783,452166,group1,yes,,prosody_paired_samples/MaiyiY/literal_IR_window.wav,,1.0,second,11.0,window,Maiyi,modal,,second,1,Male,Yes,4,30,No
313,,4864.0,audio-button-response,29,201713,0.0-8.0-10.0,16783,452166,group1,yes,,prosody_paired_samples/MaiyiY/IR_literal_Spanish.wav,,0.0,first,10.0,spanish,Maiyi,modal,,first,1,Male,Yes,4,30,No
314,,3138.0,audio-button-response,30,204852,0.0-8.0-11.0,16783,452166,group1,yes,,prosody_paired_samples/MaiyiY/IR_literal_box.wav,,0.0,first,3.0,box,Maiyi,modal,,first,1,Male,Yes,4,30,No
315,,4925.0,audio-button-response,31,209778,0.0-9.0-0.0,16783,452166,group1,yes,,prosody_paired_samples/KarenL/literal_IR_soup.wav,,1.0,second,9.0,soup,Karen,indirect,,second,1,Male,Yes,4,30,No
316,,5604.0,audio-button-response,32,215383,0.0-9.0-1.0,16783,452166,group1,yes,,prosody_paired_samples/KarenL/literal_IR_temp.wav,,0.0,second,12.0,temperature,Karen,modal,,first,0,Male,Yes,4,30,No
317,,5574.0,audio-button-response,33,220957,0.0-9.0-2.0,16783,452166,group1,yes,,prosody_paired_samples/KarenL/IR_literal_window.wav,,1.0,first,11.0,window,Karen,modal,,second,0,Male,Yes,4,30,No
318,,5820.0,audio-button-response,34,226779,0.0-9.0-3.0,16783,452166,group1,yes,,prosody_paired_samples/KarenL/IR_literal_Spanish.wav,,0.0,first,10.0,spanish,Karen,modal,,first,1,Male,Yes,4,30,No
319,,5297.0,audio-button-response,35,232077,0.0-9.0-4.0,16783,452166,group1,yes,,prosody_paired_samples/KarenL/IR_literal_car.wav,,0.0,first,1.0,car,Karen,indirect,,first,1,Male,Yes,4,30,No
320,,6157.0,audio-button-response,36,238235,0.0-9.0-5.0,16783,452166,group1,yes,,prosody_paired_samples/KarenL/IR_literal_back.wav,,0.0,first,2.0,back,Karen,indirect,,first,1,Male,Yes,4,30,No
321,,4848.0,audio-button-response,37,243084,0.0-9.0-6.0,16783,452166,group1,yes,,prosody_paired_samples/KarenL/IR_literal_box.wav,,0.0,first,3.0,box,Karen,modal,,first,1,Male,Yes,4,30,No
322,,5316.0,audio-button-response,38,248400,0.0-9.0-7.0,16783,452166,group1,yes,,prosody_paired_samples/KarenL/literal_IR_office.wav,,0.0,second,6.0,office,Karen,indirect,,first,0,Male,Yes,4,30,No
323,,6214.0,audio-button-response,39,254615,0.0-9.0-8.0,16783,452166,group1,yes,,prosody_paired_samples/KarenL/literal_IR_piano.wav,,1.0,second,8.0,piano,Karen,modal,,second,1,Male,Yes,4,30,No
324,,5200.0,audio-button-response,40,259816,0.0-9.0-9.0,16783,452166,group1,yes,,prosody_paired_samples/KarenL/literal_IR_laptop.wav,,0.0,second,5.0,laptop,Karen,indirect,,first,0,Male,Yes,4,30,No
325,,4093.0,audio-button-response,41,263910,0.0-9.0-10.0,16783,452166,group1,yes,,prosody_paired_samples/KarenL/literal_IR_door.wav,,0.0,second,4.0,door,Karen,modal,,first,0,Male,Yes,4,30,No
326,,4612.0,audio-button-response,42,268522,0.0-9.0-11.0,16783,452166,group1,yes,,prosody_paired_samples/KarenL/IR_literal_phone.wav,,0.0,first,7.0,phone,Karen,indirect,,first,1,Male,Yes,4,30,No
327,,2701.0,audio-button-response,43,271223,0.0-10.0-0.0,16783,452166,group1,yes,,prosody_paired_samples/KatieS/IR_Literal_window.wav,,0.0,first,11.0,window,Katie,modal,,first,1,Male,Yes,4,30,No
328,,4496.0,audio-button-response,44,275719,0.0-10.0-1.0,16783,452166,group1,yes,,prosody_paired_samples/KatieS/Literal_IR_phone.wav,,1.0,second,7.0,phone,Katie,indirect,,second,1,Male,Yes,4,30,No
329,,2314.0,audio-button-response,45,278033,0.0-10.0-2.0,16783,452166,group1,yes,,prosody_paired_samples/KatieS/Literal_IR_piano.wav,,0.0,second,8.0,piano,Katie,modal,,first,0,Male,Yes,4,30,No
330,,2436.0,audio-button-response,46,280471,0.0-10.0-3.0,16783,452166,group1,yes,,prosody_paired_samples/KatieS/Literal_IR_car.wav,,0.0,second,1.0,car,Katie,indirect,,first,0,Male,Yes,4,30,No
331,,2342.0,audio-button-response,47,282813,0.0-10.0-4.0,16783,452166,group1,yes,,prosody_paired_samples/KatieS/IR_Literal_temp.wav,,0.0,first,12.0,temperature,Katie,modal,,first,1,Male,Yes,4,30,No
332,,5717.0,audio-button-response,48,288531,0.0-10.0-5.0,16783,452166,group1,yes,,prosody_paired_samples/KatieS/Literal_IR_office.wav,,0.0,second,6.0,office,Katie,indirect,,first,0,Male,Yes,4,30,No
333,,4431.0,audio-button-response,49,292962,0.0-10.0-6.0,16783,452166,group1,yes,,prosody_paired_samples/KatieS/Literal_IR_soup.wav,,1.0,second,9.0,soup,Katie,indirect,,second,1,Male,Yes,4,30,No
334,,2552.0,audio-button-response,50,295516,0.0-10.0-7.0,16783,452166,group1,yes,,prosody_paired_samples/KatieS/IR_Literal_door.wav,,0.0,first,4.0,door,Katie,modal,,first,1,Male,Yes,4,30,No
335,,2402.0,audio-button-response,51,297918,0.0-10.0-8.0,16783,452166,group1,yes,,prosody_paired_samples/KatieS/IR_Literal_Spanish.wav,,0.0,first,10.0,spanish,Katie,modal,,first,1,Male,Yes,4,30,No
336,,2212.0,audio-button-response,52,300131,0.0-10.0-9.0,16783,452166,group1,yes,,prosody_paired_samples/KatieS/IR_Literal_box.wav,,0.0,first,3.0,box,Katie,modal,,first,1,Male,Yes,4,30,No
337,,4659.0,audio-button-response,53,304790,0.0-10.0-10.0,16783,452166,group1,yes,,prosody_paired_samples/KatieS/Literal_IR_back.wav,,1.0,second,2.0,back,Katie,indirect,,second,1,Male,Yes,4,30,No
338,,5252.0,audio-button-response,54,310043,0.0-10.0-11.0,16783,452166,group1,yes,,prosody_paired_samples/KatieS/IR_Literal_laptop.wav,,0.0,first,5.0,laptop,Katie,indirect,,first,1,Male,Yes,4,30,No
339,,2675.0,audio-button-response,55,312718,0.0-11.0-0.0,16783,452166,group1,yes,,prosody_paired_samples/NimishP/Literal_IR_phone.wav,,0.0,second,7.0,phone,Nimish,indirect,,first,0,Male,Yes,4,30,No
340,,2584.0,audio-button-response,56,315303,0.0-11.0-1.0,16783,452166,group1,yes,,prosody_paired_samples/NimishP/IR_Literal_laptop.wav,,0.0,first,5.0,laptop,Nimish,indirect,,first,1,Male,Yes,4,30,No
341,,2252.0,audio-button-response,57,317556,0.0-11.0-2.0,16783,452166,group1,yes,,prosody_paired_samples/NimishP/Literal_IR_box.wav,,0.0,second,3.0,box,Nimish,modal,,first,0,Male,Yes,4,30,No
342,,2534.0,audio-button-response,58,320091,0.0-11.0-3.0,16783,452166,group1,yes,,prosody_paired_samples/NimishP/IR_Literal_Spanish.wav,,0.0,first,10.0,spanish,Nimish,modal,,first,1,Male,Yes,4,30,No
343,,4877.0,audio-button-response,59,324968,0.0-11.0-4.0,16783,452166,group1,yes,,prosody_paired_samples/NimishP/Literal_IR_window.wav,,1.0,second,11.0,window,Nimish,modal,,second,1,Male,Yes,4,30,No
344,,5242.0,audio-button-response,60,330210,0.0-11.0-5.0,16783,452166,group1,yes,,prosody_paired_samples/NimishP/IR_Literal_soup.wav,,0.0,first,9.0,soup,Nimish,indirect,,first,1,Male,Yes,4,30,No
345,,5297.0,audio-button-response,61,335508,0.0-11.0-6.0,16783,452166,group1,yes,,prosody_paired_samples/NimishP/Literal_IR_car.wav,,1.0,second,1.0,car,Nimish,indirect,,second,1,Male,Yes,4,30,No
346,,4203.0,audio-button-response,62,339712,0.0-11.0-7.0,16783,452166,group1,yes,,prosody_paired_samples/NimishP/IR_Literal_temp.wav,,0.0,first,12.0,temperature,Nimish,modal,,first,1,Male,Yes,4,30,No
347,,5284.0,audio-button-response,63,344996,0.0-11.0-8.0,16783,452166,group1,yes,,prosody_paired_samples/NimishP/Literal_IR_office.wav,,1.0,second,6.0,office,Nimish,indirect,,second,1,Male,Yes,4,30,No
348,,5486.0,audio-button-response,64,350483,0.0-11.0-9.0,16783,452166,group1,yes,,prosody_paired_samples/NimishP/IR_Literal_back.wav,,0.0,first,2.0,back,Nimish,indirect,,first,1,Male,Yes,4,30,No
349,,2574.0,audio-button-response,65,353057,0.0-11.0-10.0,16783,452166,group1,yes,,prosody_paired_samples/NimishP/IR_Literal_piano.wav,,0.0,first,8.0,piano,Nimish,modal,,first,1,Male,Yes,4,30,No
350,,4363.0,audio-button-response,66,357421,0.0-11.0-11.0,16783,452166,group1,yes,,prosody_paired_samples/NimishP/Literal_IR_door.wav,,1.0,second,4.0,door,Nimish,modal,,second,1,Male,Yes,4,30,No
351,,24917.0,survey-text,67,382338,0.0-12.0,16783,452166,group1,yes,,,debrief,,,,,,,"{""Q0"":""Difference in inflection and difference between request and statements.""}",,0,Male,Yes,4,30,No
352,,7903.0,survey-multi-choice,68,390245,0.0-13.0,16783,452166,group1,yes,,,demographic1,,,,,,,"{""Q0"":""Male"",""Q1"":""Yes"",""Q2"":""4"",""Q3"":""No""}",,0,Male,Yes,4,30,No
353,,2495.0,survey-text,69,392742,0.0-14.0,16783,452166,group1,yes,,,age,,,,,,,"{""Q0"":""30""}",,0,Male,Yes,4,30,No
354,,8052.0,survey-text,70,400795,0.0-15.0,16783,452166,group1,yes,,,,,,,,,,"{""Q0"":""452166""}",,0,Male,Yes,4,30,No
355,"[{""page_index"":0,""viewing_time"":1670}]",1670.0,instructions,0,1671,0.0-0.0,17141,519187,group1,yes,,,,,,,,,,,,0,Male,Yes,4,29,No
356,,7407.0,external-html,1,9155,0.0-1.0,17141,519187,group1,yes,consent2.html,,,,,,,,,,,0,Male,Yes,4,29,No
357,"[{""page_index"":0,""viewing_time"":6452}]",6452.0,instructions,2,15607,0.0-2.0,17141,519187,group1,yes,,,,,,,,,,,,0,Male,Yes,4,29,No
358,,,video,3,24313,0.0-3.0,17141,519187,group1,yes,,"[""prosody_paired_samples/audio_calibration.mp4""]",calibration,,,,,,,,,0,Male,Yes,4,29,No
359,"[{""page_index"":0,""viewing_time"":1589}]",1590.0,instructions,4,25903,0.0-4.0,17141,519187,group1,yes,,,,,,,,,,,,0,Male,Yes,4,29,No
360,,4560.0,audio-button-response,5,30466,0.0-5.0,17141,519187,group1,yes,,prosody_paired_samples/ears_audio_check.wav,test,2.0,,,,,,,,0,Male,Yes,4,29,No
361,"[{""page_index"":0,""viewing_time"":1699},{""page_index"":1,""viewing_time"":1836},{""page_index"":2,""viewing_time"":106}]",3641.0,instructions,6,35536,0.0-6.0-0.0,17141,519187,group1,yes,,,,,,,,,,,,0,Male,Yes,4,29,No
362,,9295.0,audio-button-response,7,44831,0.0-7.0-0.0,17141,519187,group1,yes,,prosody_paired_samples/KarenL/literal_IR_laptop.wav,,0.0,second,5.0,laptop,Karen,indirect,,first,0,Male,Yes,4,29,No
363,,6822.0,audio-button-response,8,51655,0.0-7.0-1.0,17141,519187,group1,yes,,prosody_paired_samples/KarenL/IR_literal_window.wav,,1.0,first,11.0,window,Karen,modal,,second,0,Male,Yes,4,29,No
364,,5754.0,audio-button-response,9,57409,0.0-7.0-2.0,17141,519187,group1,yes,,prosody_paired_samples/KarenL/literal_IR_box.wav,,1.0,second,3.0,box,Karen,modal,,second,1,Male,Yes,4,29,No
365,,5973.0,audio-button-response,10,63382,0.0-7.0-3.0,17141,519187,group1,yes,,prosody_paired_samples/KarenL/literal_IR_Spanish.wav,,0.0,second,10.0,spanish,Karen,modal,,first,0,Male,Yes,4,29,No
366,,6642.0,audio-button-response,11,70025,0.0-7.0-4.0,17141,519187,group1,yes,,prosody_paired_samples/KarenL/literal_IR_office.wav,,0.0,second,6.0,office,Karen,indirect,,first,0,Male,Yes,4,29,No
367,,5608.0,audio-button-response,12,75633,0.0-7.0-5.0,17141,519187,group1,yes,,prosody_paired_samples/KarenL/IR_literal_piano.wav,,0.0,first,8.0,piano,Karen,modal,,first,1,Male,Yes,4,29,No
368,,5109.0,audio-button-response,13,80743,0.0-7.0-6.0,17141,519187,group1,yes,,prosody_paired_samples/KarenL/IR_literal_door.wav,,0.0,first,4.0,door,Karen,modal,,first,1,Male,Yes,4,29,No
369,,5775.0,audio-button-response,14,86518,0.0-7.0-7.0,17141,519187,group1,yes,,prosody_paired_samples/KarenL/IR_literal_soup.wav,,0.0,first,9.0,soup,Karen,indirect,,first,1,Male,Yes,4,29,No
370,,5890.0,audio-button-response,15,92409,0.0-7.0-8.0,17141,519187,group1,yes,,prosody_paired_samples/KarenL/IR_literal_car.wav,,0.0,first,1.0,car,Karen,indirect,,first,1,Male,Yes,4,29,No
371,,6395.0,audio-button-response,16,98804,0.0-7.0-9.0,17141,519187,group1,yes,,prosody_paired_samples/KarenL/literal_IR_temp.wav,,0.0,second,12.0,temperature,Karen,modal,,first,0,Male,Yes,4,29,No
372,,6123.0,audio-button-response,17,104928,0.0-7.0-10.0,17141,519187,group1,yes,,prosody_paired_samples/KarenL/literal_IR_back.wav,,0.0,second,2.0,back,Karen,indirect,,first,0,Male,Yes,4,29,No
373,,5695.0,audio-button-response,18,110625,0.0-7.0-11.0,17141,519187,group1,yes,,prosody_paired_samples/KarenL/IR_literal_phone.wav,,0.0,first,7.0,phone,Karen,indirect,,first,1,Male,Yes,4,29,No
374,,5337.0,audio-button-response,19,115962,0.0-8.0-0.0,17141,519187,group1,yes,,prosody_paired_samples/KatieS/Literal_IR_door.wav,,1.0,second,4.0,door,Katie,modal,,second,1,Male,Yes,4,29,No
375,,7085.0,audio-button-response,20,123048,0.0-8.0-1.0,17141,519187,group1,yes,,prosody_paired_samples/KatieS/Literal_IR_temp.wav,,0.0,second,12.0,temperature,Katie,modal,,first,0,Male,Yes,4,29,No
376,,9331.0,audio-button-response,21,132381,0.0-8.0-2.0,17141,519187,group1,yes,,prosody_paired_samples/KatieS/IR_Literal_back.wav,,0.0,first,2.0,back,Katie,indirect,,first,1,Male,Yes,4,29,No
377,,5262.0,audio-button-response,22,137643,0.0-8.0-3.0,17141,519187,group1,yes,,prosody_paired_samples/KatieS/Literal_IR_soup.wav,,1.0,second,9.0,soup,Katie,indirect,,second,1,Male,Yes,4,29,No
378,,5183.0,audio-button-response,23,142826,0.0-8.0-4.0,17141,519187,group1,yes,,prosody_paired_samples/KatieS/IR_Literal_piano.wav,,1.0,first,8.0,piano,Katie,modal,,second,0,Male,Yes,4,29,No
379,,6225.0,audio-button-response,24,149052,0.0-8.0-5.0,17141,519187,group1,yes,,prosody_paired_samples/KatieS/IR_Literal_office.wav,,0.0,first,6.0,office,Katie,indirect,,first,1,Male,Yes,4,29,No
380,,5653.0,audio-button-response,25,154706,0.0-8.0-6.0,17141,519187,group1,yes,,prosody_paired_samples/KatieS/IR_Literal_phone.wav,,0.0,first,7.0,phone,Katie,indirect,,first,1,Male,Yes,4,29,No
381,,5446.0,audio-button-response,26,160153,0.0-8.0-7.0,17141,519187,group1,yes,,prosody_paired_samples/KatieS/IR_Literal_window.wav,,1.0,first,11.0,window,Katie,modal,,second,0,Male,Yes,4,29,No
382,,5463.0,audio-button-response,27,165617,0.0-8.0-8.0,17141,519187,group1,yes,,prosody_paired_samples/KatieS/Literal_IR_Spanish.wav,,0.0,second,10.0,spanish,Katie,modal,,first,0,Male,Yes,4,29,No
383,,5075.0,audio-button-response,28,170693,0.0-8.0-9.0,17141,519187,group1,yes,,prosody_paired_samples/KatieS/Literal_IR_laptop.wav,,0.0,second,5.0,laptop,Katie,indirect,,first,0,Male,Yes,4,29,No
384,,5305.0,audio-button-response,29,175999,0.0-8.0-10.0,17141,519187,group1,yes,,prosody_paired_samples/KatieS/Literal_IR_box.wav,,1.0,second,3.0,box,Katie,modal,,second,1,Male,Yes,4,29,No
385,,6608.0,audio-button-response,30,182609,0.0-8.0-11.0,17141,519187,group1,yes,,prosody_paired_samples/KatieS/IR_Literal_car.wav,,1.0,first,1.0,car,Katie,indirect,,second,0,Male,Yes,4,29,No
386,,6394.0,audio-button-response,31,189003,0.0-9.0-0.0,17141,519187,group1,yes,,prosody_paired_samples/MaiyiY/literal_IR_laptop.wav,,0.0,second,5.0,laptop,Maiyi,indirect,,first,0,Male,Yes,4,29,No
387,,6384.0,audio-button-response,32,195387,0.0-9.0-1.0,17141,519187,group1,yes,,prosody_paired_samples/MaiyiY/literal_IR_Spanish.wav,,1.0,second,10.0,spanish,Maiyi,modal,,second,1,Male,Yes,4,29,No
388,,5276.0,audio-button-response,33,200663,0.0-9.0-2.0,17141,519187,group1,yes,,prosody_paired_samples/MaiyiY/IR_literal_box.wav,,1.0,first,3.0,box,Maiyi,modal,,second,0,Male,Yes,4,29,No
389,,5557.0,audio-button-response,34,206220,0.0-9.0-3.0,17141,519187,group1,yes,,prosody_paired_samples/MaiyiY/IR_literal_temp.wav,,0.0,first,12.0,temperature,Maiyi,modal,,first,1,Male,Yes,4,29,No
390,,137.0,audio-button-response,35,206360,0.0-9.0-4.0,17141,519187,group1,yes,,prosody_paired_samples/MaiyiY/literal_IR_piano.wav,,0.0,second,8.0,piano,Maiyi,modal,,first,0,Male,Yes,4,29,No
391,,5081.0,audio-button-response,36,211441,0.0-9.0-5.0,17141,519187,group1,yes,,prosody_paired_samples/MaiyiY/literal_IR_phone.wav,,0.0,second,7.0,phone,Maiyi,indirect,,first,0,Male,Yes,4,29,No
392,,6158.0,audio-button-response,37,217599,0.0-9.0-6.0,17141,519187,group1,yes,,prosody_paired_samples/MaiyiY/IR_literal_office.wav,,0.0,first,6.0,office,Maiyi,indirect,,first,1,Male,Yes,4,29,No
393,,5613.0,audio-button-response,38,223213,0.0-9.0-7.0,17141,519187,group1,yes,,prosody_paired_samples/MaiyiY/IR_literal_back.wav,,0.0,first,2.0,back,Maiyi,indirect,,first,1,Male,Yes,4,29,No
394,,5456.0,audio-button-response,39,228669,0.0-9.0-8.0,17141,519187,group1,yes,,prosody_paired_samples/MaiyiY/literal_IR_window.wav,,1.0,second,11.0,window,Maiyi,modal,,second,1,Male,Yes,4,29,No
395,,99.0,audio-button-response,40,228769,0.0-9.0-9.0,17141,519187,group1,yes,,prosody_paired_samples/MaiyiY/IR_literal_door.wav,,1.0,first,4.0,door,Maiyi,modal,,second,0,Male,Yes,4,29,No
396,,5577.0,audio-button-response,41,234347,0.0-9.0-10.0,17141,519187,group1,yes,,prosody_paired_samples/MaiyiY/literal_IR_car.wav,,0.0,second,1.0,car,Maiyi,indirect,,first,0,Male,Yes,4,29,No
397,,5414.0,audio-button-response,42,239761,0.0-9.0-11.0,17141,519187,group1,yes,,prosody_paired_samples/MaiyiY/IR_literal_soup.wav,,0.0,first,9.0,soup,Maiyi,indirect,,first,1,Male,Yes,4,29,No
398,,54.0,audio-button-response,43,239815,0.0-10.0-0.0,17141,519187,group1,yes,,prosody_paired_samples/NimishP/IR_Literal_temp.wav,,0.0,first,12.0,temperature,Nimish,modal,,first,1,Male,Yes,4,29,No
399,,6229.0,audio-button-response,44,246046,0.0-10.0-1.0,17141,519187,group1,yes,,prosody_paired_samples/NimishP/Literal_IR_soup.wav,,1.0,second,9.0,soup,Nimish,indirect,,second,1,Male,Yes,4,29,No
400,,6231.0,audio-button-response,45,252278,0.0-10.0-2.0,17141,519187,group1,yes,,prosody_paired_samples/NimishP/IR_Literal_laptop.wav,,0.0,first,5.0,laptop,Nimish,indirect,,first,1,Male,Yes,4,29,No
401,,4611.0,audio-button-response,46,256889,0.0-10.0-3.0,17141,519187,group1,yes,,prosody_paired_samples/NimishP/Literal_IR_door.wav,,0.0,second,4.0,door,Nimish,modal,,first,0,Male,Yes,4,29,No
402,,5386.0,audio-button-response,47,262275,0.0-10.0-4.0,17141,519187,group1,yes,,prosody_paired_samples/NimishP/IR_Literal_car.wav,,0.0,first,1.0,car,Nimish,indirect,,first,1,Male,Yes,4,29,No
403,,4921.0,audio-button-response,48,267198,0.0-10.0-5.0,17141,519187,group1,yes,,prosody_paired_samples/NimishP/IR_Literal_phone.wav,,0.0,first,7.0,phone,Nimish,indirect,,first,1,Male,Yes,4,29,No
404,,3929.0,audio-button-response,49,271128,0.0-10.0-6.0,17141,519187,group1,yes,,prosody_paired_samples/NimishP/IR_Literal_Spanish.wav,,0.0,first,10.0,spanish,Nimish,modal,,first,1,Male,Yes,4,29,No
405,,5114.0,audio-button-response,50,276242,0.0-10.0-7.0,17141,519187,group1,yes,,prosody_paired_samples/NimishP/IR_Literal_piano.wav,,0.0,first,8.0,piano,Nimish,modal,,first,1,Male,Yes,4,29,No
406,,4995.0,audio-button-response,51,281237,0.0-10.0-8.0,17141,519187,group1,yes,,prosody_paired_samples/NimishP/Literal_IR_window.wav,,1.0,second,11.0,window,Nimish,modal,,second,1,Male,Yes,4,29,No
407,,5399.0,audio-button-response,52,286636,0.0-10.0-9.0,17141,519187,group1,yes,,prosody_paired_samples/NimishP/Literal_IR_office.wav,,1.0,second,6.0,office,Nimish,indirect,,second,1,Male,Yes,4,29,No
408,,4892.0,audio-button-response,53,291529,0.0-10.0-10.0,17141,519187,group1,yes,,prosody_paired_samples/NimishP/Literal_IR_box.wav,,0.0,second,3.0,box,Nimish,modal,,first,0,Male,Yes,4,29,No
409,,5257.0,audio-button-response,54,296786,0.0-10.0-11.0,17141,519187,group1,yes,,prosody_paired_samples/NimishP/Literal_IR_back.wav,,0.0,second,2.0,back,Nimish,indirect,,first,0,Male,Yes,4,29,No
410,,5794.0,audio-button-response,55,302580,0.0-11.0-0.0,17141,519187,group1,yes,,prosody_paired_samples/DannyK/literal_IR_box.wav,,0.0,second,3.0,box,Danny,modal,,first,0,Male,Yes,4,29,No
411,,3333.0,audio-button-response,56,305915,0.0-11.0-1.0,17141,519187,group1,yes,,prosody_paired_samples/DannyK/IR_literal_window.wav,,0.0,first,11.0,window,Danny,modal,,first,1,Male,Yes,4,29,No
412,,5241.0,audio-button-response,57,311157,0.0-11.0-2.0,17141,519187,group1,yes,,prosody_paired_samples/DannyK/IR_literal_phone.wav,,0.0,first,7.0,phone,Danny,indirect,,first,1,Male,Yes,4,29,No
413,,5441.0,audio-button-response,58,316599,0.0-11.0-3.0,17141,519187,group1,yes,,prosody_paired_samples/DannyK/literal_IR_car.wav,,0.0,second,1.0,car,Danny,indirect,,first,0,Male,Yes,4,29,No
414,,5561.0,audio-button-response,59,322161,0.0-11.0-4.0,17141,519187,group1,yes,,prosody_paired_samples/DannyK/literal_IR_back.wav,,1.0,second,2.0,back,Danny,indirect,,second,1,Male,Yes,4,29,No
415,,87.0,audio-button-response,60,322249,0.0-11.0-5.0,17141,519187,group1,yes,,prosody_paired_samples/DannyK/literal_IR_soup.wav,,1.0,second,9.0,soup,Danny,indirect,,second,1,Male,Yes,4,29,No
416,,5597.0,audio-button-response,61,327847,0.0-11.0-6.0,17141,519187,group1,yes,,prosody_paired_samples/DannyK/literal_IR_Spanish.wav,,0.0,second,10.0,spanish,Danny,modal,,first,0,Male,Yes,4,29,No
417,,5289.0,audio-button-response,62,333136,0.0-11.0-7.0,17141,519187,group1,yes,,prosody_paired_samples/DannyK/IR_literal_piano.wav,,1.0,first,8.0,piano,Danny,modal,,second,0,Male,Yes,4,29,No
418,,5706.0,audio-button-response,63,338843,0.0-11.0-8.0,17141,519187,group1,yes,,prosody_paired_samples/DannyK/IR_literal_laptop.wav,,0.0,first,5.0,laptop,Danny,indirect,,first,1,Male,Yes,4,29,No
419,,5651.0,audio-button-response,64,344495,0.0-11.0-9.0,17141,519187,group1,yes,,prosody_paired_samples/DannyK/IR_literal_office.wav,,0.0,first,6.0,office,Danny,indirect,,first,1,Male,Yes,4,29,No
420,,5327.0,audio-button-response,65,349823,0.0-11.0-10.0,17141,519187,group1,yes,,prosody_paired_samples/DannyK/literal_IR_door.wav,,1.0,second,4.0,door,Danny,modal,,second,1,Male,Yes,4,29,No
421,,5707.0,audio-button-response,66,355531,0.0-11.0-11.0,17141,519187,group1,yes,,prosody_paired_samples/DannyK/IR_literal_temp.wav,,1.0,first,12.0,temperature,Danny,modal,,second,0,Male,Yes,4,29,No
422,,13700.0,survey-text,67,369231,0.0-12.0,17141,519187,group1,yes,,,debrief,,,,,,,"{""Q0"":""understanding different tones of voice""}",,0,Male,Yes,4,29,No
423,,7428.0,survey-multi-choice,68,376664,0.0-13.0,17141,519187,group1,yes,,,demographic1,,,,,,,"{""Q0"":""Male"",""Q1"":""Yes"",""Q2"":""4"",""Q3"":""No""}",,0,Male,Yes,4,29,No
424,,3691.0,survey-text,69,380357,0.0-14.0,17141,519187,group1,yes,,,age,,,,,,,"{""Q0"":""29""}",,0,Male,Yes,4,29,No
425,,8404.0,survey-text,70,388763,0.0-15.0,17141,519187,group1,yes,,,,,,,,,,"{""Q0"":""519187""}",,0,Male,Yes,4,29,No
426,"[{""page_index"":0,""viewing_time"":26549}]",26551.0,instructions,0,26552,0.0-0.0,1772,338441,group3,yes,,,,,,,,,,,,0,Female,Yes,5,30,No
427,,10534.0,external-html,1,37461,0.0-1.0,1772,338441,group3,yes,consent2.html,,,,,,,,,,,0,Female,Yes,5,30,No
428,"[{""page_index"":0,""viewing_time"":2282}]",2282.0,instructions,2,39743,0.0-2.0,1772,338441,group3,yes,,,,,,,,,,,,0,Female,Yes,5,30,No
429,,,video,3,48458,0.0-3.0,1772,338441,group3,yes,,"[""prosody_paired_samples/audio_calibration.mp4""]",calibration,,,,,,,,,0,Female,Yes,5,30,No
430,"[{""page_index"":0,""viewing_time"":2095}]",2096.0,instructions,4,50555,0.0-4.0,1772,338441,group3,yes,,,,,,,,,,,,0,Female,Yes,5,30,No
431,,4415.0,audio-button-response,5,54973,0.0-5.0,1772,338441,group3,yes,,prosody_paired_samples/ears_audio_check.wav,test,2.0,,,,,,,,0,Female,Yes,5,30,No
432,"[{""page_index"":0,""viewing_time"":1339},{""page_index"":1,""viewing_time"":11234},{""page_index"":2,""viewing_time"":2561}]",15134.0,instructions,6,71540,0.0-6.0-0.0,1772,338441,group3,yes,,,,,,,,,,,,0,Female,Yes,5,30,No
433,,6257.0,audio-button-response,7,77800,0.0-7.0-0.0,1772,338441,group3,yes,,prosody_paired_samples/NimishP/Literal_IR_window.wav,,1.0,second,11.0,window,Nimish,modal,,second,1,Female,Yes,5,30,No
434,,8883.0,audio-button-response,8,86684,0.0-7.0-1.0,1772,338441,group3,yes,,prosody_paired_samples/NimishP/Literal_IR_office.wav,,0.0,second,6.0,office,Nimish,indirect,,first,0,Female,Yes,5,30,No
435,,6279.0,audio-button-response,9,92964,0.0-7.0-2.0,1772,338441,group3,yes,,prosody_paired_samples/NimishP/IR_Literal_box.wav,,0.0,first,3.0,box,Nimish,modal,,first,1,Female,Yes,5,30,No
436,,6161.0,audio-button-response,10,99128,0.0-7.0-3.0,1772,338441,group3,yes,,prosody_paired_samples/NimishP/IR_Literal_temp.wav,,0.0,first,12.0,temperature,Nimish,modal,,first,1,Female,Yes,5,30,No
437,,6731.0,audio-button-response,11,105860,0.0-7.0-4.0,1772,338441,group3,yes,,prosody_paired_samples/NimishP/Literal_IR_car.wav,,0.0,second,1.0,car,Nimish,indirect,,first,0,Female,Yes,5,30,No
438,,7541.0,audio-button-response,12,113401,0.0-7.0-5.0,1772,338441,group3,yes,,prosody_paired_samples/NimishP/IR_Literal_phone.wav,,0.0,first,7.0,phone,Nimish,indirect,,first,1,Female,Yes,5,30,No
439,,8252.0,audio-button-response,13,121654,0.0-7.0-6.0,1772,338441,group3,yes,,prosody_paired_samples/NimishP/Literal_IR_back.wav,,1.0,second,2.0,back,Nimish,indirect,,second,1,Female,Yes,5,30,No
440,,5501.0,audio-button-response,14,127156,0.0-7.0-7.0,1772,338441,group3,yes,,prosody_paired_samples/NimishP/Literal_IR_door.wav,,1.0,second,4.0,door,Nimish,modal,,second,1,Female,Yes,5,30,No
441,,9696.0,audio-button-response,15,136853,0.0-7.0-8.0,1772,338441,group3,yes,,prosody_paired_samples/NimishP/IR_Literal_Spanish.wav,,1.0,first,10.0,spanish,Nimish,modal,,second,0,Female,Yes,5,30,No
442,,6672.0,audio-button-response,16,143526,0.0-7.0-9.0,1772,338441,group3,yes,,prosody_paired_samples/NimishP/Literal_IR_soup.wav,,0.0,second,9.0,soup,Nimish,indirect,,first,0,Female,Yes,5,30,No
443,,7496.0,audio-button-response,17,151024,0.0-7.0-10.0,1772,338441,group3,yes,,prosody_paired_samples/NimishP/IR_Literal_laptop.wav,,0.0,first,5.0,laptop,Nimish,indirect,,first,1,Female,Yes,5,30,No
444,,6247.0,audio-button-response,18,157272,0.0-7.0-11.0,1772,338441,group3,yes,,prosody_paired_samples/NimishP/IR_Literal_piano.wav,,1.0,first,8.0,piano,Nimish,modal,,second,0,Female,Yes,5,30,No
445,,7945.0,audio-button-response,19,165217,0.0-8.0-0.0,1772,338441,group3,yes,,prosody_paired_samples/DannyK/IR_literal_laptop.wav,,0.0,first,5.0,laptop,Danny,indirect,,first,1,Female,Yes,5,30,No
446,,7753.0,audio-button-response,20,172972,0.0-8.0-1.0,1772,338441,group3,yes,,prosody_paired_samples/DannyK/literal_IR_door.wav,,1.0,second,4.0,door,Danny,modal,,second,1,Female,Yes,5,30,No
447,,5742.0,audio-button-response,21,178715,0.0-8.0-2.0,1772,338441,group3,yes,,prosody_paired_samples/DannyK/IR_literal_window.wav,,0.0,first,11.0,window,Danny,modal,,first,1,Female,Yes,5,30,No
448,,6343.0,audio-button-response,22,185058,0.0-8.0-3.0,1772,338441,group3,yes,,prosody_paired_samples/DannyK/IR_literal_soup.wav,,1.0,first,9.0,soup,Danny,indirect,,second,0,Female,Yes,5,30,No
449,,5895.0,audio-button-response,23,190956,0.0-8.0-4.0,1772,338441,group3,yes,,prosody_paired_samples/DannyK/literal_IR_Spanish.wav,,0.0,second,10.0,spanish,Danny,modal,,first,0,Female,Yes,5,30,No
450,,6108.0,audio-button-response,24,197065,0.0-8.0-5.0,1772,338441,group3,yes,,prosody_paired_samples/DannyK/literal_IR_office.wav,,0.0,second,6.0,office,Danny,indirect,,first,0,Female,Yes,5,30,No
451,,5367.0,audio-button-response,25,202433,0.0-8.0-6.0,1772,338441,group3,yes,,prosody_paired_samples/DannyK/literal_IR_piano.wav,,1.0,second,8.0,piano,Danny,modal,,second,1,Female,Yes,5,30,No
452,,6129.0,audio-button-response,26,208565,0.0-8.0-7.0,1772,338441,group3,yes,,prosody_paired_samples/DannyK/IR_literal_box.wav,,0.0,first,3.0,box,Danny,modal,,first,1,Female,Yes,5,30,No
453,,6417.0,audio-button-response,27,214982,0.0-8.0-8.0,1772,338441,group3,yes,,prosody_paired_samples/DannyK/literal_IR_temp.wav,,1.0,second,12.0,temperature,Danny,modal,,second,1,Female,Yes,5,30,No
454,,5558.0,audio-button-response,28,220542,0.0-8.0-9.0,1772,338441,group3,yes,,prosody_paired_samples/DannyK/IR_literal_car.wav,,0.0,first,1.0,car,Danny,indirect,,first,1,Female,Yes,5,30,No
455,,7981.0,audio-button-response,29,228526,0.0-8.0-10.0,1772,338441,group3,yes,,prosody_paired_samples/DannyK/IR_literal_back.wav,,0.0,first,2.0,back,Danny,indirect,,first,1,Female,Yes,5,30,No
456,,7406.0,audio-button-response,30,235933,0.0-8.0-11.0,1772,338441,group3,yes,,prosody_paired_samples/DannyK/literal_IR_phone.wav,,0.0,second,7.0,phone,Danny,indirect,,first,0,Female,Yes,5,30,No
457,,7517.0,audio-button-response,31,243450,0.0-9.0-0.0,1772,338441,group3,yes,,prosody_paired_samples/KatieS/IR_Literal_temp.wav,,0.0,first,12.0,temperature,Katie,modal,,first,1,Female,Yes,5,30,No
458,,8066.0,audio-button-response,32,251518,0.0-9.0-1.0,1772,338441,group3,yes,,prosody_paired_samples/KatieS/Literal_IR_office.wav,,1.0,second,6.0,office,Katie,indirect,,second,1,Female,Yes,5,30,No
459,,8257.0,audio-button-response,33,259776,0.0-9.0-2.0,1772,338441,group3,yes,,prosody_paired_samples/KatieS/Literal_IR_soup.wav,,1.0,second,9.0,soup,Katie,indirect,,second,1,Female,Yes,5,30,No
460,,7347.0,audio-button-response,34,267126,0.0-9.0-3.0,1772,338441,group3,yes,,prosody_paired_samples/KatieS/Literal_IR_door.wav,,1.0,second,4.0,door,Katie,modal,,second,1,Female,Yes,5,30,No
461,,6787.0,audio-button-response,35,273915,0.0-9.0-4.0,1772,338441,group3,yes,,prosody_paired_samples/KatieS/IR_Literal_window.wav,,0.0,first,11.0,window,Katie,modal,,first,1,Female,Yes,5,30,No
462,,7150.0,audio-button-response,36,281065,0.0-9.0-5.0,1772,338441,group3,yes,,prosody_paired_samples/KatieS/Literal_IR_laptop.wav,,1.0,second,5.0,laptop,Katie,indirect,,second,1,Female,Yes,5,30,No
463,,7801.0,audio-button-response,37,288869,0.0-9.0-6.0,1772,338441,group3,yes,,prosody_paired_samples/KatieS/Literal_IR_car.wav,,1.0,second,1.0,car,Katie,indirect,,second,1,Female,Yes,5,30,No
464,,7523.0,audio-button-response,38,296392,0.0-9.0-7.0,1772,338441,group3,yes,,prosody_paired_samples/KatieS/IR_Literal_phone.wav,,0.0,first,7.0,phone,Katie,indirect,,first,1,Female,Yes,5,30,No
465,,8850.0,audio-button-response,39,305245,0.0-9.0-8.0,1772,338441,group3,yes,,prosody_paired_samples/KatieS/IR_Literal_back.wav,,0.0,first,2.0,back,Katie,indirect,,first,1,Female,Yes,5,30,No
466,,9681.0,audio-button-response,40,314927,0.0-9.0-9.0,1772,338441,group3,yes,,prosody_paired_samples/KatieS/IR_Literal_piano.wav,,0.0,first,8.0,piano,Katie,modal,,first,1,Female,Yes,5,30,No
467,,7038.0,audio-button-response,41,321967,0.0-9.0-10.0,1772,338441,group3,yes,,prosody_paired_samples/KatieS/IR_Literal_Spanish.wav,,0.0,first,10.0,spanish,Katie,modal,,first,1,Female,Yes,5,30,No
468,,6313.0,audio-button-response,42,328281,0.0-9.0-11.0,1772,338441,group3,yes,,prosody_paired_samples/KatieS/Literal_IR_box.wav,,1.0,second,3.0,box,Katie,modal,,second,1,Female,Yes,5,30,No
469,,6783.0,audio-button-response,43,335064,0.0-10.0-0.0,1772,338441,group3,yes,,prosody_paired_samples/MaiyiY/literal_IR_door.wav,,1.0,second,4.0,door,Maiyi,modal,,second,1,Female,Yes,5,30,No
470,,7273.0,audio-button-response,44,342339,0.0-10.0-1.0,1772,338441,group3,yes,,prosody_paired_samples/MaiyiY/literal_IR_car.wav,,1.0,second,1.0,car,Maiyi,indirect,,second,1,Female,Yes,5,30,No
471,,8763.0,audio-button-response,45,351104,0.0-10.0-2.0,1772,338441,group3,yes,,prosody_paired_samples/MaiyiY/literal_IR_piano.wav,,1.0,second,8.0,piano,Maiyi,modal,,second,1,Female,Yes,5,30,No
472,,6050.0,audio-button-response,46,357154,0.0-10.0-3.0,1772,338441,group3,yes,,prosody_paired_samples/MaiyiY/IR_literal_Spanish.wav,,0.0,first,10.0,spanish,Maiyi,modal,,first,1,Female,Yes,5,30,No
473,,6854.0,audio-button-response,47,364010,0.0-10.0-4.0,1772,338441,group3,yes,,prosody_paired_samples/MaiyiY/literal_IR_window.wav,,0.0,second,11.0,window,Maiyi,modal,,first,0,Female,Yes,5,30,No
474,,6597.0,audio-button-response,48,370610,0.0-10.0-5.0,1772,338441,group3,yes,,prosody_paired_samples/MaiyiY/IR_literal_temp.wav,,0.0,first,12.0,temperature,Maiyi,modal,,first,1,Female,Yes,5,30,No
475,,5727.0,audio-button-response,49,376338,0.0-10.0-6.0,1772,338441,group3,yes,,prosody_paired_samples/MaiyiY/IR_literal_box.wav,,0.0,first,3.0,box,Maiyi,modal,,first,1,Female,Yes,5,30,No
476,,7925.0,audio-button-response,50,384264,0.0-10.0-7.0,1772,338441,group3,yes,,prosody_paired_samples/MaiyiY/literal_IR_phone.wav,,1.0,second,7.0,phone,Maiyi,indirect,,second,1,Female,Yes,5,30,No
477,,7244.0,audio-button-response,51,391509,0.0-10.0-8.0,1772,338441,group3,yes,,prosody_paired_samples/MaiyiY/IR_literal_soup.wav,,1.0,first,9.0,soup,Maiyi,indirect,,second,0,Female,Yes,5,30,No
478,,6166.0,audio-button-response,52,397675,0.0-10.0-9.0,1772,338441,group3,yes,,prosody_paired_samples/MaiyiY/IR_literal_back.wav,,0.0,first,2.0,back,Maiyi,indirect,,first,1,Female,Yes,5,30,No
479,,6188.0,audio-button-response,53,403865,0.0-10.0-10.0,1772,338441,group3,yes,,prosody_paired_samples/MaiyiY/IR_literal_office.wav,,0.0,first,6.0,office,Maiyi,indirect,,first,1,Female,Yes,5,30,No
480,,7136.0,audio-button-response,54,411005,0.0-10.0-11.0,1772,338441,group3,yes,,prosody_paired_samples/MaiyiY/literal_IR_laptop.wav,,0.0,second,5.0,laptop,Maiyi,indirect,,first,0,Female,Yes,5,30,No
481,,6546.0,audio-button-response,55,417554,0.0-11.0-0.0,1772,338441,group3,yes,,prosody_paired_samples/KarenL/literal_IR_laptop.wav,,1.0,second,5.0,laptop,Karen,indirect,,second,1,Female,Yes,5,30,No
482,,6517.0,audio-button-response,56,424071,0.0-11.0-1.0,1772,338441,group3,yes,,prosody_paired_samples/KarenL/IR_literal_temp.wav,,0.0,first,12.0,temperature,Karen,modal,,first,1,Female,Yes,5,30,No
483,,7396.0,audio-button-response,57,431468,0.0-11.0-2.0,1772,338441,group3,yes,,prosody_paired_samples/KarenL/IR_literal_window.wav,,1.0,first,11.0,window,Karen,modal,,second,0,Female,Yes,5,30,No
484,,771.0,audio-button-response,58,432239,0.0-11.0-3.0,1772,338441,group3,yes,,prosody_paired_samples/KarenL/IR_literal_car.wav,,1.0,first,1.0,car,Karen,indirect,,second,0,Female,Yes,5,30,No
485,,6005.0,audio-button-response,59,438246,0.0-11.0-4.0,1772,338441,group3,yes,,prosody_paired_samples/KarenL/IR_literal_door.wav,,0.0,first,4.0,door,Karen,modal,,first,1,Female,Yes,5,30,No
486,,5911.0,audio-button-response,60,444157,0.0-11.0-5.0,1772,338441,group3,yes,,prosody_paired_samples/KarenL/literal_IR_back.wav,,1.0,second,2.0,back,Karen,indirect,,second,1,Female,Yes,5,30,No
487,,6731.0,audio-button-response,61,450890,0.0-11.0-6.0,1772,338441,group3,yes,,prosody_paired_samples/KarenL/literal_IR_box.wav,,1.0,second,3.0,box,Karen,modal,,second,1,Female,Yes,5,30,No
488,,6618.0,audio-button-response,62,457509,0.0-11.0-7.0,1772,338441,group3,yes,,prosody_paired_samples/KarenL/IR_literal_soup.wav,,0.0,first,9.0,soup,Karen,indirect,,first,1,Female,Yes,5,30,No
489,,6958.0,audio-button-response,63,464468,0.0-11.0-8.0,1772,338441,group3,yes,,prosody_paired_samples/KarenL/IR_literal_phone.wav,,0.0,first,7.0,phone,Karen,indirect,,first,1,Female,Yes,5,30,No
490,,7401.0,audio-button-response,64,471872,0.0-11.0-9.0,1772,338441,group3,yes,,prosody_paired_samples/KarenL/literal_IR_piano.wav,,0.0,second,8.0,piano,Karen,modal,,first,0,Female,Yes,5,30,No
491,,6221.0,audio-button-response,65,478094,0.0-11.0-10.0,1772,338441,group3,yes,,prosody_paired_samples/KarenL/literal_IR_office.wav,,1.0,second,6.0,office,Karen,indirect,,second,1,Female,Yes,5,30,No
492,,6297.0,audio-button-response,66,484393,0.0-11.0-11.0,1772,338441,group3,yes,,prosody_paired_samples/KarenL/literal_IR_Spanish.wav,,1.0,second,10.0,spanish,Karen,modal,,second,1,Female,Yes,5,30,No
493,,18733.0,survey-text,67,503128,0.0-12.0,1772,338441,group3,yes,,,debrief,,,,,,,"{""Q0"":""listening to inflections to determine the goal of the speaker""}",,0,Female,Yes,5,30,No
494,,6779.0,survey-multi-choice,68,509917,0.0-13.0,1772,338441,group3,yes,,,demographic1,,,,,,,"{""Q0"":""Female"",""Q1"":""Yes"",""Q2"":""5"",""Q3"":""No""}",,0,Female,Yes,5,30,No
495,,4009.0,survey-text,69,513932,0.0-14.0,1772,338441,group3,yes,,,age,,,,,,,"{""Q0"":""30""}",,0,Female,Yes,5,30,No
496,,7773.0,survey-text,70,521705,0.0-15.0,1772,338441,group3,yes,,,,,,,,,,"{""Q0"":""338441""}",,0,Female,Yes,5,30,No
497,"[{""page_index"":0,""viewing_time"":1925}]",1925.0,instructions,0,1926,0.0-0.0,18450,249786,group4,yes,,,,,,,,,,,,0,Male,Yes,5,29,No
498,,18365.0,external-html,1,20300,0.0-1.0,18450,249786,group4,yes,consent2.html,,,,,,,,,,,0,Male,Yes,5,29,No
499,"[{""page_index"":0,""viewing_time"":2082}]",2082.0,instructions,2,22382,0.0-2.0,18450,249786,group4,yes,,,,,,,,,,,,0,Male,Yes,5,29,No
500,,,video,3,30798,0.0-3.0,18450,249786,group4,yes,,"[""prosody_paired_samples/audio_calibration.mp4""]",calibration,,,,,,,,,0,Male,Yes,5,29,No
501,"[{""page_index"":0,""viewing_time"":4090}]",4090.0,instructions,4,34888,0.0-4.0,18450,249786,group4,yes,,,,,,,,,,,,0,Male,Yes,5,29,No
502,,5418.0,audio-button-response,5,40308,0.0-5.0,18450,249786,group4,yes,,prosody_paired_samples/ears_audio_check.wav,test,2.0,,,,,,,,0,Male,Yes,5,29,No
503,"[{""page_index"":0,""viewing_time"":1860},{""page_index"":1,""viewing_time"":17371},{""page_index"":2,""viewing_time"":5787}]",25018.0,instructions,6,66728,0.0-6.0-0.0,18450,249786,group4,yes,,,,,,,,,,,,0,Male,Yes,5,29,No
504,,8849.0,audio-button-response,7,75578,0.0-7.0-0.0,18450,249786,group4,yes,,prosody_paired_samples/KatieS/IR_Literal_back.wav,,0.0,first,2.0,back,Katie,indirect,,first,1,Male,Yes,5,29,No
505,,7215.0,audio-button-response,8,82793,0.0-7.0-1.0,18450,249786,group4,yes,,prosody_paired_samples/KatieS/Literal_IR_box.wav,,1.0,second,3.0,box,Katie,modal,,second,1,Male,Yes,5,29,No
506,,6300.0,audio-button-response,9,89094,0.0-7.0-2.0,18450,249786,group4,yes,,prosody_paired_samples/KatieS/Literal_IR_Spanish.wav,,1.0,second,10.0,spanish,Katie,modal,,second,1,Male,Yes,5,29,No
507,,5769.0,audio-button-response,10,94863,0.0-7.0-3.0,18450,249786,group4,yes,,prosody_paired_samples/KatieS/IR_Literal_soup.wav,,0.0,first,9.0,soup,Katie,indirect,,first,1,Male,Yes,5,29,No
508,,8192.0,audio-button-response,11,103055,0.0-7.0-4.0,18450,249786,group4,yes,,prosody_paired_samples/KatieS/IR_Literal_temp.wav,,0.0,first,12.0,temperature,Katie,modal,,first,1,Male,Yes,5,29,No
509,,6496.0,audio-button-response,12,109551,0.0-7.0-5.0,18450,249786,group4,yes,,prosody_paired_samples/KatieS/Literal_IR_office.wav,,1.0,second,6.0,office,Katie,indirect,,second,1,Male,Yes,5,29,No
510,,6727.0,audio-button-response,13,116279,0.0-7.0-6.0,18450,249786,group4,yes,,prosody_paired_samples/KatieS/Literal_IR_piano.wav,,0.0,second,8.0,piano,Katie,modal,,first,0,Male,Yes,5,29,No
511,,5848.0,audio-button-response,14,122127,0.0-7.0-7.0,18450,249786,group4,yes,,prosody_paired_samples/KatieS/Literal_IR_door.wav,,0.0,second,4.0,door,Katie,modal,,first,0,Male,Yes,5,29,No
512,,6277.0,audio-button-response,15,128405,0.0-7.0-8.0,18450,249786,group4,yes,,prosody_paired_samples/KatieS/IR_Literal_laptop.wav,,0.0,first,5.0,laptop,Katie,indirect,,first,1,Male,Yes,5,29,No
513,,7998.0,audio-button-response,16,136403,0.0-7.0-9.0,18450,249786,group4,yes,,prosody_paired_samples/KatieS/Literal_IR_car.wav,,1.0,second,1.0,car,Katie,indirect,,second,1,Male,Yes,5,29,No
514,,6119.0,audio-button-response,17,142523,0.0-7.0-10.0,18450,249786,group4,yes,,prosody_paired_samples/KatieS/IR_Literal_window.wav,,0.0,first,11.0,window,Katie,modal,,first,1,Male,Yes,5,29,No
515,,6619.0,audio-button-response,18,149143,0.0-7.0-11.0,18450,249786,group4,yes,,prosody_paired_samples/KatieS/IR_Literal_phone.wav,,0.0,first,7.0,phone,Katie,indirect,,first,1,Male,Yes,5,29,No
516,,6781.0,audio-button-response,19,155925,0.0-8.0-0.0,18450,249786,group4,yes,,prosody_paired_samples/NimishP/IR_Literal_soup.wav,,0.0,first,9.0,soup,Nimish,indirect,,first,1,Male,Yes,5,29,No
517,,6097.0,audio-button-response,20,162023,0.0-8.0-1.0,18450,249786,group4,yes,,prosody_paired_samples/NimishP/Literal_IR_door.wav,,0.0,second,4.0,door,Nimish,modal,,first,0,Male,Yes,5,29,No
518,,5986.0,audio-button-response,21,168010,0.0-8.0-2.0,18450,249786,group4,yes,,prosody_paired_samples/NimishP/Literal_IR_car.wav,,0.0,second,1.0,car,Nimish,indirect,,first,0,Male,Yes,5,29,No
519,,6081.0,audio-button-response,22,174092,0.0-8.0-3.0,18450,249786,group4,yes,,prosody_paired_samples/NimishP/IR_Literal_temp.wav,,0.0,first,12.0,temperature,Nimish,modal,,first,1,Male,Yes,5,29,No
520,,5848.0,audio-button-response,23,179941,0.0-8.0-4.0,18450,249786,group4,yes,,prosody_paired_samples/NimishP/Literal_IR_box.wav,,0.0,second,3.0,box,Nimish,modal,,first,0,Male,Yes,5,29,No
521,,5847.0,audio-button-response,24,185788,0.0-8.0-5.0,18450,249786,group4,yes,,prosody_paired_samples/NimishP/Literal_IR_Spanish.wav,,0.0,second,10.0,spanish,Nimish,modal,,first,0,Male,Yes,5,29,No
522,,6096.0,audio-button-response,25,191886,0.0-8.0-6.0,18450,249786,group4,yes,,prosody_paired_samples/NimishP/IR_Literal_laptop.wav,,0.0,first,5.0,laptop,Nimish,indirect,,first,1,Male,Yes,5,29,No
523,,5879.0,audio-button-response,26,197765,0.0-8.0-7.0,18450,249786,group4,yes,,prosody_paired_samples/NimishP/Literal_IR_back.wav,,0.0,second,2.0,back,Nimish,indirect,,first,0,Male,Yes,5,29,No
524,,5995.0,audio-button-response,27,203760,0.0-8.0-8.0,18450,249786,group4,yes,,prosody_paired_samples/NimishP/IR_Literal_window.wav,,0.0,first,11.0,window,Nimish,modal,,first,1,Male,Yes,5,29,No
525,,5506.0,audio-button-response,28,209266,0.0-8.0-9.0,18450,249786,group4,yes,,prosody_paired_samples/NimishP/IR_Literal_office.wav,,0.0,first,6.0,office,Nimish,indirect,,first,1,Male,Yes,5,29,No
526,,7178.0,audio-button-response,29,216445,0.0-8.0-10.0,18450,249786,group4,yes,,prosody_paired_samples/NimishP/IR_Literal_phone.wav,,0.0,first,7.0,phone,Nimish,indirect,,first,1,Male,Yes,5,29,No
527,,6485.0,audio-button-response,30,222931,0.0-8.0-11.0,18450,249786,group4,yes,,prosody_paired_samples/NimishP/Literal_IR_piano.wav,,1.0,second,8.0,piano,Nimish,modal,,second,1,Male,Yes,5,29,No
528,,5769.0,audio-button-response,31,228700,0.0-9.0-0.0,18450,249786,group4,yes,,prosody_paired_samples/MaiyiY/literal_IR_door.wav,,1.0,second,4.0,door,Maiyi,modal,,second,1,Male,Yes,5,29,No
529,,5534.0,audio-button-response,32,234234,0.0-9.0-1.0,18450,249786,group4,yes,,prosody_paired_samples/MaiyiY/IR_literal_phone.wav,,0.0,first,7.0,phone,Maiyi,indirect,,first,1,Male,Yes,5,29,No
530,,6831.0,audio-button-response,33,241065,0.0-9.0-2.0,18450,249786,group4,yes,,prosody_paired_samples/MaiyiY/literal_IR_soup.wav,,1.0,second,9.0,soup,Maiyi,indirect,,second,1,Male,Yes,5,29,No
