,rt,trial_type,trial_index,time_elapsed,internal_node_id,subject,group,passed_test,stimulus,type,button_pressed,answer,stimNum,topic,speaker,form,response,correct,Gender,Native_Speaker,Music_Ability,Age,Mobile
0,49892,instructions,0,49894,0.0-0.0,13725,group1,yes,,,,,,,,,,0,Male,Yes,4,31,No
1,6925,external-html,1,57098,0.0-1.0,13725,group1,yes,,,,,,,,,,0,Male,Yes,4,31,No
2,8029,instructions,2,65131,0.0-2.0,13725,group1,yes,,,,,,,,,,0,Male,Yes,4,31,No
3,,video,3,74039,0.0-3.0,13725,group1,yes,"[""prosody_paired_samples/audio_calibration.mp4""]",calibration,,,,,,,,0,Male,Yes,4,31,No
4,2166,instructions,4,76205,0.0-4.0,13725,group1,yes,,,,,,,,,,0,Male,Yes,4,31,No
5,4177,audio-button-response,5,80390,0.0-5.0,13725,group1,yes,prosody_paired_samples/ears_audio_check.wav,test,2,,,,,,,0,Male,Yes,4,31,No
6,34575,instructions,6,116496,0.0-6.0-0.0,13725,group1,yes,,,,,,,,,,0,Male,Yes,4,31,No
7,6332,audio-button-response,7,122831,0.0-7.0-0.0,13725,group1,yes,prosody_paired_samples/KatieS/IR_Literal_door.wav,,0,first,4,door,Katie,modal,first,1,Male,Yes,4,31,No
8,6910,audio-button-response,8,129742,0.0-7.0-1.0,13725,group1,yes,prosody_paired_samples/KatieS/IR_Literal_box.wav,,0,first,3,box,Katie,modal,first,1,Male,Yes,4,31,No
9,6035,audio-button-response,9,135783,0.0-7.0-2.0,13725,group1,yes,prosody_paired_samples/KatieS/Literal_IR_window.wav,,1,second,11,window,Katie,modal,second,1,Male,Yes,4,31,No
10,12021,audio-button-response,10,147806,0.0-7.0-3.0,13725,group1,yes,prosody_paired_samples/KatieS/IR_Literal_laptop.wav,,1,first,5,laptop,Katie,indirect,second,0,Male,Yes,4,31,No
11,6605,audio-button-response,11,154413,0.0-7.0-4.0,13725,group1,yes,prosody_paired_samples/KatieS/Literal_IR_temp.wav,,1,second,12,temperature,Katie,modal,second,1,Male,Yes,4,31,No
12,6153,audio-button-response,12,160568,0.0-7.0-5.0,13725,group1,yes,prosody_paired_samples/KatieS/IR_Literal_Spanish.wav,,0,first,10,spanish,Katie,modal,first,1,Male,Yes,4,31,No
13,11059,audio-button-response,13,171628,0.0-7.0-6.0,13725,group1,yes,prosody_paired_samples/KatieS/Literal_IR_soup.wav,,1,second,9,soup,Katie,indirect,second,1,Male,Yes,4,31,No
14,9527,audio-button-response,14,181159,0.0-7.0-7.0,13725,group1,yes,prosody_paired_samples/KatieS/IR_Literal_back.wav,,0,first,2,back,Katie,indirect,first,1,Male,Yes,4,31,No
15,9100,audio-button-response,15,190262,0.0-7.0-8.0,13725,group1,yes,prosody_paired_samples/KatieS/Literal_IR_phone.wav,,0,second,7,phone,Katie,indirect,first,0,Male,Yes,4,31,No
16,7726,audio-button-response,16,197990,0.0-7.0-9.0,13725,group1,yes,prosody_paired_samples/KatieS/Literal_IR_office.wav,,1,second,6,office,Katie,indirect,second,1,Male,Yes,4,31,No
17,6897,audio-button-response,17,204890,0.0-7.0-10.0,13725,group1,yes,prosody_paired_samples/KatieS/Literal_IR_car.wav,,1,second,1,car,Katie,indirect,second,1,Male,Yes,4,31,No
18,6024,audio-button-response,18,210917,0.0-7.0-11.0,13725,group1,yes,prosody_paired_samples/KatieS/IR_Literal_piano.wav,,0,first,8,piano,Katie,modal,first,1,Male,Yes,4,31,No
19,7152,audio-button-response,19,218069,0.0-8.0-0.0,13725,group1,yes,prosody_paired_samples/MaiyiY/literal_IR_piano.wav,,1,second,8,piano,Maiyi,modal,second,1,Male,Yes,4,31,No
20,8353,audio-button-response,20,226424,0.0-8.0-1.0,13725,group1,yes,prosody_paired_samples/MaiyiY/IR_literal_temp.wav,,0,first,12,temperature,Maiyi,modal,first,1,Male,Yes,4,31,No
21,8489,audio-button-response,21,234921,0.0-8.0-2.0,13725,group1,yes,prosody_paired_samples/MaiyiY/literal_IR_car.wav,,1,second,1,car,Maiyi,indirect,second,1,Male,Yes,4,31,No
22,8862,audio-button-response,22,243799,0.0-8.0-3.0,13725,group1,yes,prosody_paired_samples/MaiyiY/literal_IR_laptop.wav,,0,second,5,laptop,Maiyi,indirect,first,0,Male,Yes,4,31,No
23,8118,audio-button-response,23,251934,0.0-8.0-4.0,13725,group1,yes,prosody_paired_samples/MaiyiY/literal_IR_window.wav,,1,second,11,window,Maiyi,modal,second,1,Male,Yes,4,31,No
24,6255,audio-button-response,24,258190,0.0-8.0-5.0,13725,group1,yes,prosody_paired_samples/MaiyiY/IR_literal_door.wav,,0,first,4,door,Maiyi,modal,first,1,Male,Yes,4,31,No
25,6237,audio-button-response,25,264429,0.0-8.0-6.0,13725,group1,yes,prosody_paired_samples/MaiyiY/literal_IR_office.wav,,0,second,6,office,Maiyi,indirect,first,0,Male,Yes,4,31,No
26,8277,audio-button-response,26,272708,0.0-8.0-7.0,13725,group1,yes,prosody_paired_samples/MaiyiY/IR_literal_Spanish.wav,,0,first,10,spanish,Maiyi,modal,first,1,Male,Yes,4,31,No
27,10788,audio-button-response,27,283501,0.0-8.0-8.0,13725,group1,yes,prosody_paired_samples/MaiyiY/IR_literal_box.wav,,0,first,3,box,Maiyi,modal,first,1,Male,Yes,4,31,No
28,10735,audio-button-response,28,294238,0.0-8.0-9.0,13725,group1,yes,prosody_paired_samples/MaiyiY/IR_literal_back.wav,,0,first,2,back,Maiyi,indirect,first,1,Male,Yes,4,31,No
29,8973,audio-button-response,29,303212,0.0-8.0-10.0,13725,group1,yes,prosody_paired_samples/MaiyiY/IR_literal_phone.wav,,1,first,7,phone,Maiyi,indirect,second,0,Male,Yes,4,31,No
30,9215,audio-button-response,30,312429,0.0-8.0-11.0,13725,group1,yes,prosody_paired_samples/MaiyiY/literal_IR_soup.wav,,0,second,9,soup,Maiyi,indirect,first,0,Male,Yes,4,31,No
31,7267,audio-button-response,31,319700,0.0-9.0-0.0,13725,group1,yes,prosody_paired_samples/KarenL/literal_IR_soup.wav,,0,second,9,soup,Karen,indirect,first,0,Male,Yes,4,31,No
32,12128,audio-button-response,32,331833,0.0-9.0-1.0,13725,group1,yes,prosody_paired_samples/KarenL/literal_IR_door.wav,,1,second,4,door,Karen,modal,second,1,Male,Yes,4,31,No
33,10863,audio-button-response,33,342698,0.0-9.0-2.0,13725,group1,yes,prosody_paired_samples/KarenL/IR_literal_temp.wav,,0,first,12,temperature,Karen,modal,first,1,Male,Yes,4,31,No
34,8020,audio-button-response,34,350720,0.0-9.0-3.0,13725,group1,yes,prosody_paired_samples/KarenL/IR_literal_piano.wav,,0,first,8,piano,Karen,modal,first,1,Male,Yes,4,31,No
35,7016,audio-button-response,35,357742,0.0-9.0-4.0,13725,group1,yes,prosody_paired_samples/KarenL/literal_IR_car.wav,,1,second,1,car,Karen,indirect,second,1,Male,Yes,4,31,No
36,9273,audio-button-response,36,367018,0.0-9.0-5.0,13725,group1,yes,prosody_paired_samples/KarenL/IR_literal_office.wav,,0,first,6,office,Karen,indirect,first,1,Male,Yes,4,31,No
37,7775,audio-button-response,37,374796,0.0-9.0-6.0,13725,group1,yes,prosody_paired_samples/KarenL/literal_IR_back.wav,,0,second,2,back,Karen,indirect,first,0,Male,Yes,4,31,No
38,6922,audio-button-response,38,381719,0.0-9.0-7.0,13725,group1,yes,prosody_paired_samples/KarenL/IR_literal_box.wav,,0,first,3,box,Karen,modal,first,1,Male,Yes,4,31,No
39,6594,audio-button-response,39,388315,0.0-9.0-8.0,13725,group1,yes,prosody_paired_samples/KarenL/IR_literal_Spanish.wav,,0,first,10,spanish,Karen,modal,first,1,Male,Yes,4,31,No
40,8085,audio-button-response,40,396402,0.0-9.0-9.0,13725,group1,yes,prosody_paired_samples/KarenL/IR_literal_phone.wav,,0,first,7,phone,Karen,indirect,first,1,Male,Yes,4,31,No
41,6168,audio-button-response,41,402572,0.0-9.0-10.0,13725,group1,yes,prosody_paired_samples/KarenL/literal_IR_laptop.wav,,0,second,5,laptop,Karen,indirect,first,0,Male,Yes,4,31,No
42,6121,audio-button-response,42,408695,0.0-9.0-11.0,13725,group1,yes,prosody_paired_samples/KarenL/literal_IR_window.wav,,0,second,11,window,Karen,modal,first,0,Male,Yes,4,31,No
43,6116,audio-button-response,43,414813,0.0-10.0-0.0,13725,group1,yes,prosody_paired_samples/DannyK/IR_literal_phone.wav,,0,first,7,phone,Danny,indirect,first,1,Male,Yes,4,31,No
44,18806,audio-button-response,44,433621,0.0-10.0-1.0,13725,group1,yes,prosody_paired_samples/DannyK/literal_IR_back.wav,,1,second,2,back,Danny,indirect,second,1,Male,Yes,4,31,No
45,8122,audio-button-response,45,441746,0.0-10.0-2.0,13725,group1,yes,prosody_paired_samples/DannyK/literal_IR_office.wav,,0,second,6,office,Danny,indirect,first,0,Male,Yes,4,31,No
46,15614,audio-button-response,46,457361,0.0-10.0-3.0,13725,group1,yes,prosody_paired_samples/DannyK/IR_literal_soup.wav,,0,first,9,soup,Danny,indirect,first,1,Male,Yes,4,31,No
47,17867,audio-button-response,47,475230,0.0-10.0-4.0,13725,group1,yes,prosody_paired_samples/DannyK/literal_IR_door.wav,,1,second,4,door,Danny,modal,second,1,Male,Yes,4,31,No
48,11218,audio-button-response,48,486450,0.0-10.0-5.0,13725,group1,yes,prosody_paired_samples/DannyK/IR_literal_Spanish.wav,,1,first,10,spanish,Danny,modal,second,0,Male,Yes,4,31,No
49,7128,audio-button-response,49,493580,0.0-10.0-6.0,13725,group1,yes,prosody_paired_samples/DannyK/literal_IR_piano.wav,,1,second,8,piano,Danny,modal,second,1,Male,Yes,4,31,No
50,7337,audio-button-response,50,500919,0.0-10.0-7.0,13725,group1,yes,prosody_paired_samples/DannyK/IR_literal_laptop.wav,,1,first,5,laptop,Danny,indirect,second,0,Male,Yes,4,31,No
51,10899,audio-button-response,51,511821,0.0-10.0-8.0,13725,group1,yes,prosody_paired_samples/DannyK/IR_literal_temp.wav,,1,first,12,temperature,Danny,modal,second,0,Male,Yes,4,31,No
52,5781,audio-button-response,52,517604,0.0-10.0-9.0,13725,group1,yes,prosody_paired_samples/DannyK/IR_literal_box.wav,,0,first,3,box,Danny,modal,first,1,Male,Yes,4,31,No
53,7062,audio-button-response,53,524669,0.0-10.0-10.0,13725,group1,yes,prosody_paired_samples/DannyK/literal_IR_window.wav,,1,second,11,window,Danny,modal,second,1,Male,Yes,4,31,No
54,6690,audio-button-response,54,531360,0.0-10.0-11.0,13725,group1,yes,prosody_paired_samples/DannyK/literal_IR_car.wav,,1,second,1,car,Danny,indirect,second,1,Male,Yes,4,31,No
55,7446,audio-button-response,55,538812,0.0-11.0-0.0,13725,group1,yes,prosody_paired_samples/NimishP/IR_Literal_back.wav,,0,first,2,back,Nimish,indirect,first,1,Male,Yes,4,31,No
56,6518,audio-button-response,56,545334,0.0-11.0-1.0,13725,group1,yes,prosody_paired_samples/NimishP/Literal_IR_car.wav,,1,second,1,car,Nimish,indirect,second,1,Male,Yes,4,31,No
57,5584,audio-button-response,57,550921,0.0-11.0-2.0,13725,group1,yes,prosody_paired_samples/NimishP/Literal_IR_door.wav,,1,second,4,door,Nimish,modal,second,1,Male,Yes,4,31,No
58,6578,audio-button-response,58,557501,0.0-11.0-3.0,13725,group1,yes,prosody_paired_samples/NimishP/Literal_IR_soup.wav,,1,second,9,soup,Nimish,indirect,second,1,Male,Yes,4,31,No
59,8325,audio-button-response,59,565828,0.0-11.0-4.0,13725,group1,yes,prosody_paired_samples/NimishP/IR_Literal_box.wav,,0,first,3,box,Nimish,modal,first,1,Male,Yes,4,31,No
60,6543,audio-button-response,60,572374,0.0-11.0-5.0,13725,group1,yes,prosody_paired_samples/NimishP/IR_Literal_office.wav,,0,first,6,office,Nimish,indirect,first,1,Male,Yes,4,31,No
61,8637,audio-button-response,61,581016,0.0-11.0-6.0,13725,group1,yes,prosody_paired_samples/NimishP/Literal_IR_Spanish.wav,,0,second,10,spanish,Nimish,modal,first,0,Male,Yes,4,31,No
62,6365,audio-button-response,62,587384,0.0-11.0-7.0,13725,group1,yes,prosody_paired_samples/NimishP/Literal_IR_temp.wav,,1,second,12,temperature,Nimish,modal,second,1,Male,Yes,4,31,No
63,9574,audio-button-response,63,596959,0.0-11.0-8.0,13725,group1,yes,prosody_paired_samples/NimishP/IR_Literal_piano.wav,,0,first,8,piano,Nimish,modal,first,1,Male,Yes,4,31,No
64,5831,audio-button-response,64,602792,0.0-11.0-9.0,13725,group1,yes,prosody_paired_samples/NimishP/IR_Literal_phone.wav,,0,first,7,phone,Nimish,indirect,first,1,Male,Yes,4,31,No
65,6934,audio-button-response,65,609729,0.0-11.0-10.0,13725,group1,yes,prosody_paired_samples/NimishP/Literal_IR_laptop.wav,,1,second,5,laptop,Nimish,indirect,second,1,Male,Yes,4,31,No
66,7777,audio-button-response,66,617507,0.0-11.0-11.0,13725,group1,yes,prosody_paired_samples/NimishP/IR_Literal_window.wav,,0,first,11,window,Nimish,modal,first,1,Male,Yes,4,31,No
67,15220,survey-text,67,632730,0.0-12.0,13725,group1,yes,,debrief,,,,,,,,0,Male,Yes,4,31,No
68,9764,survey-multi-choice,68,642522,0.0-13.0,13725,group1,yes,,demographic1,,,,,,,,0,Male,Yes,4,31,No
69,2977,survey-text,69,645504,0.0-14.0,13725,group1,yes,,age,,,,,,,,0,Male,Yes,4,31,No
70,7032,survey-text,70,652538,0.0-15.0,13725,group1,yes,,,,,,,,,,0,Male,Yes,4,31,No
71,10084,instructions,0,10084,0.0-0.0,14172,group3,yes,,,,,,,,,,0,Male,Yes,4,21,No
72,6451,external-html,1,16794,0.0-1.0,14172,group3,yes,,,,,,,,,,0,Male,Yes,4,21,No
73,3557,instructions,2,20351,0.0-2.0,14172,group3,yes,,,,,,,,,,0,Male,Yes,4,21,No
74,,video,3,28995,0.0-3.0,14172,group3,yes,"[""prosody_paired_samples/audio_calibration.mp4""]",calibration,,,,,,,,0,Male,Yes,4,21,No
75,37348,instructions,4,66343,0.0-4.0,14172,group3,yes,,,,,,,,,,0,Male,Yes,4,21,No
76,6607,audio-button-response,5,72951,0.0-5.0,14172,group3,yes,prosody_paired_samples/ears_audio_check.wav,test,2,,,,,,,0,Male,Yes,4,21,No
77,25861,instructions,6,100154,0.0-6.0-0.0,14172,group3,yes,,,,,,,,,,0,Male,Yes,4,21,No
78,10660,audio-button-response,7,110815,0.0-7.0-0.0,14172,group3,yes,prosody_paired_samples/DannyK/IR_literal_car.wav,,0,first,1,car,Danny,indirect,first,1,Male,Yes,4,21,No
79,9999,audio-button-response,8,120814,0.0-7.0-1.0,14172,group3,yes,prosody_paired_samples/DannyK/literal_IR_window.wav,,1,second,11,window,Danny,modal,second,1,Male,Yes,4,21,No
80,6005,audio-button-response,9,126820,0.0-7.0-2.0,14172,group3,yes,prosody_paired_samples/DannyK/literal_IR_Spanish.wav,,0,second,10,spanish,Danny,modal,first,0,Male,Yes,4,21,No
81,6058,audio-button-response,10,132879,0.0-7.0-3.0,14172,group3,yes,prosody_paired_samples/DannyK/IR_literal_temp.wav,,0,first,12,temperature,Danny,modal,first,1,Male,Yes,4,21,No
82,5947,audio-button-response,11,138827,0.0-7.0-4.0,14172,group3,yes,prosody_paired_samples/DannyK/IR_literal_door.wav,,0,first,4,door,Danny,modal,first,1,Male,Yes,4,21,No
83,7296,audio-button-response,12,146124,0.0-7.0-5.0,14172,group3,yes,prosody_paired_samples/DannyK/IR_literal_soup.wav,,0,first,9,soup,Danny,indirect,first,1,Male,Yes,4,21,No
84,5947,audio-button-response,13,152071,0.0-7.0-6.0,14172,group3,yes,prosody_paired_samples/DannyK/literal_IR_laptop.wav,,0,second,5,laptop,Danny,indirect,first,0,Male,Yes,4,21,No
85,5697,audio-button-response,14,157768,0.0-7.0-7.0,14172,group3,yes,prosody_paired_samples/DannyK/literal_IR_piano.wav,,1,second,8,piano,Danny,modal,second,1,Male,Yes,4,21,No
86,7035,audio-button-response,15,164803,0.0-7.0-8.0,14172,group3,yes,prosody_paired_samples/DannyK/IR_literal_back.wav,,0,first,2,back,Danny,indirect,first,1,Male,Yes,4,21,No
87,5951,audio-button-response,16,170754,0.0-7.0-9.0,14172,group3,yes,prosody_paired_samples/DannyK/literal_IR_office.wav,,0,second,6,office,Danny,indirect,first,0,Male,Yes,4,21,No
88,5564,audio-button-response,17,176319,0.0-7.0-10.0,14172,group3,yes,prosody_paired_samples/DannyK/literal_IR_phone.wav,,0,second,7,phone,Danny,indirect,first,0,Male,Yes,4,21,No
89,5500,audio-button-response,18,181819,0.0-7.0-11.0,14172,group3,yes,prosody_paired_samples/DannyK/IR_literal_box.wav,,0,first,3,box,Danny,modal,first,1,Male,Yes,4,21,No
90,9026,audio-button-response,19,190845,0.0-8.0-0.0,14172,group3,yes,prosody_paired_samples/KatieS/Literal_IR_laptop.wav,,1,second,5,laptop,Katie,indirect,second,1,Male,Yes,4,21,No
91,4885,audio-button-response,20,195730,0.0-8.0-1.0,14172,group3,yes,prosody_paired_samples/KatieS/IR_Literal_window.wav,,0,first,11,window,Katie,modal,first,1,Male,Yes,4,21,No
92,6284,audio-button-response,21,202014,0.0-8.0-2.0,14172,group3,yes,prosody_paired_samples/KatieS/IR_Literal_soup.wav,,1,first,9,soup,Katie,indirect,second,0,Male,Yes,4,21,No
93,7082,audio-button-response,22,209096,0.0-8.0-3.0,14172,group3,yes,prosody_paired_samples/KatieS/IR_Literal_back.wav,,0,first,2,back,Katie,indirect,first,1,Male,Yes,4,21,No
94,4618,audio-button-response,23,213715,0.0-8.0-4.0,14172,group3,yes,prosody_paired_samples/KatieS/IR_Literal_box.wav,,0,first,3,box,Katie,modal,first,1,Male,Yes,4,21,No
95,5741,audio-button-response,24,219458,0.0-8.0-5.0,14172,group3,yes,prosody_paired_samples/KatieS/IR_Literal_temp.wav,,0,first,12,temperature,Katie,modal,first,1,Male,Yes,4,21,No
96,6866,audio-button-response,25,226324,0.0-8.0-6.0,14172,group3,yes,prosody_paired_samples/KatieS/IR_Literal_Spanish.wav,,0,first,10,spanish,Katie,modal,first,1,Male,Yes,4,21,No
97,8971,audio-button-response,26,235295,0.0-8.0-7.0,14172,group3,yes,prosody_paired_samples/KatieS/Literal_IR_door.wav,,1,second,4,door,Katie,modal,second,1,Male,Yes,4,21,No
98,7942,audio-button-response,27,243237,0.0-8.0-8.0,14172,group3,yes,prosody_paired_samples/KatieS/Literal_IR_piano.wav,,1,second,8,piano,Katie,modal,second,1,Male,Yes,4,21,No
99,7122,audio-button-response,28,250359,0.0-8.0-9.0,14172,group3,yes,prosody_paired_samples/KatieS/Literal_IR_phone.wav,,0,second,7,phone,Katie,indirect,first,0,Male,Yes,4,21,No
100,5693,audio-button-response,29,256052,0.0-8.0-10.0,14172,group3,yes,prosody_paired_samples/KatieS/Literal_IR_office.wav,,1,second,6,office,Katie,indirect,second,1,Male,Yes,4,21,No
101,5717,audio-button-response,30,261769,0.0-8.0-11.0,14172,group3,yes,prosody_paired_samples/KatieS/Literal_IR_car.wav,,1,second,1,car,Katie,indirect,second,1,Male,Yes,4,21,No
102,8117,audio-button-response,31,269887,0.0-9.0-0.0,14172,group3,yes,prosody_paired_samples/NimishP/IR_Literal_window.wav,,1,first,11,window,Nimish,modal,second,0,Male,Yes,4,21,No
103,5732,audio-button-response,32,275619,0.0-9.0-1.0,14172,group3,yes,prosody_paired_samples/NimishP/IR_Literal_car.wav,,0,first,1,car,Nimish,indirect,first,1,Male,Yes,4,21,No
104,6627,audio-button-response,33,282246,0.0-9.0-2.0,14172,group3,yes,prosody_paired_samples/NimishP/Literal_IR_phone.wav,,0,second,7,phone,Nimish,indirect,first,0,Male,Yes,4,21,No
105,5311,audio-button-response,34,287558,0.0-9.0-3.0,14172,group3,yes,prosody_paired_samples/NimishP/Literal_IR_piano.wav,,1,second,8,piano,Nimish,modal,second,1,Male,Yes,4,21,No
106,4969,audio-button-response,35,292527,0.0-9.0-4.0,14172,group3,yes,prosody_paired_samples/NimishP/Literal_IR_temp.wav,,1,second,12,temperature,Nimish,modal,second,1,Male,Yes,4,21,No
107,6153,audio-button-response,36,298680,0.0-9.0-5.0,14172,group3,yes,prosody_paired_samples/NimishP/IR_Literal_back.wav,,0,first,2,back,Nimish,indirect,first,1,Male,Yes,4,21,No
108,5604,audio-button-response,37,304284,0.0-9.0-6.0,14172,group3,yes,prosody_paired_samples/NimishP/IR_Literal_box.wav,,0,first,3,box,Nimish,modal,first,1,Male,Yes,4,21,No
109,5629,audio-button-response,38,309914,0.0-9.0-7.0,14172,group3,yes,prosody_paired_samples/NimishP/Literal_IR_office.wav,,0,second,6,office,Nimish,indirect,first,0,Male,Yes,4,21,No
110,5823,audio-button-response,39,315737,0.0-9.0-8.0,14172,group3,yes,prosody_paired_samples/NimishP/IR_Literal_Spanish.wav,,0,first,10,spanish,Nimish,modal,first,1,Male,Yes,4,21,No
111,6360,audio-button-response,40,322098,0.0-9.0-9.0,14172,group3,yes,prosody_paired_samples/NimishP/IR_Literal_laptop.wav,,0,first,5,laptop,Nimish,indirect,first,1,Male,Yes,4,21,No
112,5997,audio-button-response,41,328095,0.0-9.0-10.0,14172,group3,yes,prosody_paired_samples/NimishP/Literal_IR_soup.wav,,1,second,9,soup,Nimish,indirect,second,1,Male,Yes,4,21,No
113,4361,audio-button-response,42,332456,0.0-9.0-11.0,14172,group3,yes,prosody_paired_samples/NimishP/Literal_IR_door.wav,,1,second,4,door,Nimish,modal,second,1,Male,Yes,4,21,No
114,6223,audio-button-response,43,338680,0.0-10.0-0.0,14172,group3,yes,prosody_paired_samples/KarenL/IR_literal_piano.wav,,1,first,8,piano,Karen,modal,second,0,Male,Yes,4,21,No
115,6378,audio-button-response,44,345058,0.0-10.0-1.0,14172,group3,yes,prosody_paired_samples/KarenL/IR_literal_office.wav,,0,first,6,office,Karen,indirect,first,1,Male,Yes,4,21,No
116,11970,audio-button-response,45,357028,0.0-10.0-2.0,14172,group3,yes,prosody_paired_samples/KarenL/IR_literal_Spanish.wav,,1,first,10,spanish,Karen,modal,second,0,Male,Yes,4,21,No
117,5339,audio-button-response,46,362368,0.0-10.0-3.0,14172,group3,yes,prosody_paired_samples/KarenL/literal_IR_box.wav,,1,second,3,box,Karen,modal,second,1,Male,Yes,4,21,No
118,4513,audio-button-response,47,366882,0.0-10.0-4.0,14172,group3,yes,prosody_paired_samples/KarenL/literal_IR_soup.wav,,1,second,9,soup,Karen,indirect,second,1,Male,Yes,4,21,No
119,5373,audio-button-response,48,372255,0.0-10.0-5.0,14172,group3,yes,prosody_paired_samples/KarenL/IR_literal_back.wav,,0,first,2,back,Karen,indirect,first,1,Male,Yes,4,21,No
120,6089,audio-button-response,49,378345,0.0-10.0-6.0,14172,group3,yes,prosody_paired_samples/KarenL/literal_IR_car.wav,,0,second,1,car,Karen,indirect,first,0,Male,Yes,4,21,No
121,5790,audio-button-response,50,384135,0.0-10.0-7.0,14172,group3,yes,prosody_paired_samples/KarenL/IR_literal_temp.wav,,1,first,12,temperature,Karen,modal,second,0,Male,Yes,4,21,No
122,5689,audio-button-response,51,389824,0.0-10.0-8.0,14172,group3,yes,prosody_paired_samples/KarenL/IR_literal_door.wav,,0,first,4,door,Karen,modal,first,1,Male,Yes,4,21,No
123,4930,audio-button-response,52,394754,0.0-10.0-9.0,14172,group3,yes,prosody_paired_samples/KarenL/literal_IR_phone.wav,,0,second,7,phone,Karen,indirect,first,0,Male,Yes,4,21,No
124,8514,audio-button-response,53,403268,0.0-10.0-10.0,14172,group3,yes,prosody_paired_samples/KarenL/literal_IR_laptop.wav,,1,second,5,laptop,Karen,indirect,second,1,Male,Yes,4,21,No
125,6643,audio-button-response,54,409911,0.0-10.0-11.0,14172,group3,yes,prosody_paired_samples/KarenL/literal_IR_window.wav,,1,second,11,window,Karen,modal,second,1,Male,Yes,4,21,No
126,6194,audio-button-response,55,416105,0.0-11.0-0.0,14172,group3,yes,prosody_paired_samples/MaiyiY/literal_IR_laptop.wav,,1,second,5,laptop,Maiyi,indirect,second,1,Male,Yes,4,21,No
127,7848,audio-button-response,56,423953,0.0-11.0-1.0,14172,group3,yes,prosody_paired_samples/MaiyiY/IR_literal_door.wav,,0,first,4,door,Maiyi,modal,first,1,Male,Yes,4,21,No
128,9435,audio-button-response,57,433389,0.0-11.0-2.0,14172,group3,yes,prosody_paired_samples/MaiyiY/literal_IR_office.wav,,1,second,6,office,Maiyi,indirect,second,1,Male,Yes,4,21,No
129,5041,audio-button-response,58,438431,0.0-11.0-3.0,14172,group3,yes,prosody_paired_samples/MaiyiY/literal_IR_box.wav,,1,second,3,box,Maiyi,modal,second,1,Male,Yes,4,21,No
130,5998,audio-button-response,59,444430,0.0-11.0-4.0,14172,group3,yes,prosody_paired_samples/MaiyiY/literal_IR_car.wav,,1,second,1,car,Maiyi,indirect,second,1,Male,Yes,4,21,No
131,6650,audio-button-response,60,451081,0.0-11.0-5.0,14172,group3,yes,prosody_paired_samples/MaiyiY/IR_literal_piano.wav,,0,first,8,piano,Maiyi,modal,first,1,Male,Yes,4,21,No
132,5101,audio-button-response,61,456184,0.0-11.0-6.0,14172,group3,yes,prosody_paired_samples/MaiyiY/IR_literal_soup.wav,,0,first,9,soup,Maiyi,indirect,first,1,Male,Yes,4,21,No
133,6431,audio-button-response,62,462615,0.0-11.0-7.0,14172,group3,yes,prosody_paired_samples/MaiyiY/IR_literal_temp.wav,,1,first,12,temperature,Maiyi,modal,second,0,Male,Yes,4,21,No
134,5970,audio-button-response,63,468585,0.0-11.0-8.0,14172,group3,yes,prosody_paired_samples/MaiyiY/IR_literal_phone.wav,,1,first,7,phone,Maiyi,indirect,second,0,Male,Yes,4,21,No
135,6040,audio-button-response,64,474625,0.0-11.0-9.0,14172,group3,yes,prosody_paired_samples/MaiyiY/IR_literal_Spanish.wav,,1,first,10,spanish,Maiyi,modal,second,0,Male,Yes,4,21,No
136,6966,audio-button-response,65,481592,0.0-11.0-10.0,14172,group3,yes,prosody_paired_samples/MaiyiY/literal_IR_window.wav,,1,second,11,window,Maiyi,modal,second,1,Male,Yes,4,21,No
137,5375,audio-button-response,66,486969,0.0-11.0-11.0,14172,group3,yes,prosody_paired_samples/MaiyiY/literal_IR_back.wav,,1,second,2,back,Maiyi,indirect,second,1,Male,Yes,4,21,No
138,1995,survey-text,67,488965,0.0-12.0,14172,group3,yes,,debrief,,,,,,,,0,Male,Yes,4,21,No
139,7591,survey-multi-choice,68,496561,0.0-13.0,14172,group3,yes,,demographic1,,,,,,,,0,Male,Yes,4,21,No
140,2227,survey-text,69,498790,0.0-14.0,14172,group3,yes,,age,,,,,,,,0,Male,Yes,4,21,No
141,15959,survey-text,70,514749,0.0-15.0,14172,group3,yes,,,,,,,,,,0,Male,Yes,4,21,No
142,14625,instructions,0,14632,0.0-0.0,15647,group2,yes,,,,,,,,,,0,Male,Yes,3,32,No
143,9833,external-html,1,24826,0.0-1.0,15647,group2,yes,,,,,,,,,,0,Male,Yes,3,32,No
144,3863,instructions,2,28691,0.0-2.0,15647,group2,yes,,,,,,,,,,0,Male,Yes,3,32,No
145,,video,3,38182,0.0-3.0,15647,group2,yes,"[""prosody_paired_samples/audio_calibration.mp4""]",calibration,,,,,,,,0,Male,Yes,3,32,No
146,2331,instructions,4,40514,0.0-4.0,15647,group2,yes,,,,,,,,,,0,Male,Yes,3,32,No
147,4859,audio-button-response,5,45437,0.0-5.0,15647,group2,yes,prosody_paired_samples/ears_audio_check.wav,test,2,,,,,,,0,Male,Yes,3,32,No
148,40201,instructions,6,86977,0.0-6.0-0.0,15647,group2,yes,,,,,,,,,,0,Male,Yes,3,32,No
149,7350,audio-button-response,7,94332,0.0-7.0-0.0,15647,group2,yes,prosody_paired_samples/KatieS/IR_Literal_temp.wav,,0,first,12,temperature,Katie,modal,first,1,Male,Yes,3,32,No
150,8863,audio-button-response,8,103197,0.0-7.0-1.0,15647,group2,yes,prosody_paired_samples/KatieS/Literal_IR_piano.wav,,1,second,8,piano,Katie,modal,second,1,Male,Yes,3,32,No
151,8939,audio-button-response,9,112137,0.0-7.0-2.0,15647,group2,yes,prosody_paired_samples/KatieS/Literal_IR_phone.wav,,1,second,7,phone,Katie,indirect,second,1,Male,Yes,3,32,No
152,8902,audio-button-response,10,121042,0.0-7.0-3.0,15647,group2,yes,prosody_paired_samples/KatieS/Literal_IR_back.wav,,1,second,2,back,Katie,indirect,second,1,Male,Yes,3,32,No
153,6070,audio-button-response,11,127115,0.0-7.0-4.0,15647,group2,yes,prosody_paired_samples/KatieS/Literal_IR_soup.wav,,0,second,9,soup,Katie,indirect,first,0,Male,Yes,3,32,No
154,5620,audio-button-response,12,132737,0.0-7.0-5.0,15647,group2,yes,prosody_paired_samples/KatieS/IR_Literal_Spanish.wav,,0,first,10,spanish,Katie,modal,first,1,Male,Yes,3,32,No
155,7846,audio-button-response,13,140585,0.0-7.0-6.0,15647,group2,yes,prosody_paired_samples/KatieS/IR_Literal_laptop.wav,,0,first,5,laptop,Katie,indirect,first,1,Male,Yes,3,32,No
156,4950,audio-button-response,14,145537,0.0-7.0-7.0,15647,group2,yes,prosody_paired_samples/KatieS/Literal_IR_window.wav,,1,second,11,window,Katie,modal,second,1,Male,Yes,3,32,No
157,8967,audio-button-response,15,154506,0.0-7.0-8.0,15647,group2,yes,prosody_paired_samples/KatieS/Literal_IR_office.wav,,0,second,6,office,Katie,indirect,first,0,Male,Yes,3,32,No
158,5989,audio-button-response,16,160497,0.0-7.0-9.0,15647,group2,yes,prosody_paired_samples/KatieS/IR_Literal_door.wav,,0,first,4,door,Katie,modal,first,1,Male,Yes,3,32,No
159,7285,audio-button-response,17,167788,0.0-7.0-10.0,15647,group2,yes,prosody_paired_samples/KatieS/IR_Literal_box.wav,,0,first,3,box,Katie,modal,first,1,Male,Yes,3,32,No
160,7066,audio-button-response,18,174858,0.0-7.0-11.0,15647,group2,yes,prosody_paired_samples/KatieS/IR_Literal_car.wav,,0,first,1,car,Katie,indirect,first,1,Male,Yes,3,32,No
161,16301,audio-button-response,19,191163,0.0-8.0-0.0,15647,group2,yes,prosody_paired_samples/MaiyiY/literal_IR_laptop.wav,,1,second,5,laptop,Maiyi,indirect,second,1,Male,Yes,3,32,No
162,5253,audio-button-response,20,196418,0.0-8.0-1.0,15647,group2,yes,prosody_paired_samples/MaiyiY/IR_literal_phone.wav,,0,first,7,phone,Maiyi,indirect,first,1,Male,Yes,3,32,No
163,7548,audio-button-response,21,203970,0.0-8.0-2.0,15647,group2,yes,prosody_paired_samples/MaiyiY/IR_literal_back.wav,,1,first,2,back,Maiyi,indirect,second,0,Male,Yes,3,32,No
164,9197,audio-button-response,22,213170,0.0-8.0-3.0,15647,group2,yes,prosody_paired_samples/MaiyiY/literal_IR_door.wav,,1,second,4,door,Maiyi,modal,second,1,Male,Yes,3,32,No
165,8182,audio-button-response,23,221355,0.0-8.0-4.0,15647,group2,yes,prosody_paired_samples/MaiyiY/IR_literal_window.wav,,0,first,11,window,Maiyi,modal,first,1,Male,Yes,3,32,No
166,7349,audio-button-response,24,228706,0.0-8.0-5.0,15647,group2,yes,prosody_paired_samples/MaiyiY/literal_IR_Spanish.wav,,1,second,10,spanish,Maiyi,modal,second,1,Male,Yes,3,32,No
167,5181,audio-button-response,25,233890,0.0-8.0-6.0,15647,group2,yes,prosody_paired_samples/MaiyiY/literal_IR_piano.wav,,1,second,8,piano,Maiyi,modal,second,1,Male,Yes,3,32,No
168,5230,audio-button-response,26,239123,0.0-8.0-7.0,15647,group2,yes,prosody_paired_samples/MaiyiY/IR_literal_box.wav,,0,first,3,box,Maiyi,modal,first,1,Male,Yes,3,32,No
169,5327,audio-button-response,27,244451,0.0-8.0-8.0,15647,group2,yes,prosody_paired_samples/MaiyiY/literal_IR_temp.wav,,1,second,12,temperature,Maiyi,modal,second,1,Male,Yes,3,32,No
170,6653,audio-button-response,28,251106,0.0-8.0-9.0,15647,group2,yes,prosody_paired_samples/MaiyiY/IR_literal_car.wav,,0,first,1,car,Maiyi,indirect,first,1,Male,Yes,3,32,No
171,7525,audio-button-response,29,258634,0.0-8.0-10.0,15647,group2,yes,prosody_paired_samples/MaiyiY/literal_IR_office.wav,,0,second,6,office,Maiyi,indirect,first,0,Male,Yes,3,32,No
172,1340976,audio-button-response,30,1599613,0.0-8.0-11.0,15647,group2,yes,prosody_paired_samples/MaiyiY/IR_literal_soup.wav,,0,first,9,soup,Maiyi,indirect,first,1,Male,Yes,3,32,No
173,9044,audio-button-response,31,1608660,0.0-9.0-0.0,15647,group2,yes,prosody_paired_samples/NimishP/IR_Literal_temp.wav,,1,first,12,temperature,Nimish,modal,second,0,Male,Yes,3,32,No
174,10981,audio-button-response,32,1619644,0.0-9.0-1.0,15647,group2,yes,prosody_paired_samples/NimishP/Literal_IR_office.wav,,0,second,6,office,Nimish,indirect,first,0,Male,Yes,3,32,No
175,4974,audio-button-response,33,1624619,0.0-9.0-2.0,15647,group2,yes,prosody_paired_samples/NimishP/Literal_IR_laptop.wav,,1,second,5,laptop,Nimish,indirect,second,1,Male,Yes,3,32,No
176,11326,audio-button-response,34,1635950,0.0-9.0-3.0,15647,group2,yes,prosody_paired_samples/NimishP/IR_Literal_door.wav,,0,first,4,door,Nimish,modal,first,1,Male,Yes,3,32,No
177,12010,audio-button-response,35,1647964,0.0-9.0-4.0,15647,group2,yes,prosody_paired_samples/NimishP/Literal_IR_phone.wav,,1,second,7,phone,Nimish,indirect,second,1,Male,Yes,3,32,No
178,5981,audio-button-response,36,1653948,0.0-9.0-5.0,15647,group2,yes,prosody_paired_samples/NimishP/Literal_IR_soup.wav,,1,second,9,soup,Nimish,indirect,second,1,Male,Yes,3,32,No
179,6373,audio-button-response,37,1660323,0.0-9.0-6.0,15647,group2,yes,prosody_paired_samples/NimishP/Literal_IR_back.wav,,0,second,2,back,Nimish,indirect,first,0,Male,Yes,3,32,No
180,7365,audio-button-response,38,1667691,0.0-9.0-7.0,15647,group2,yes,prosody_paired_samples/NimishP/IR_Literal_window.wav,,0,first,11,window,Nimish,modal,first,1,Male,Yes,3,32,No
181,7037,audio-button-response,39,1674731,0.0-9.0-8.0,15647,group2,yes,prosody_paired_samples/NimishP/IR_Literal_piano.wav,,1,first,8,piano,Nimish,modal,second,0,Male,Yes,3,32,No
182,8997,audio-button-response,40,1683731,0.0-9.0-9.0,15647,group2,yes,prosody_paired_samples/NimishP/IR_Literal_Spanish.wav,,0,first,10,spanish,Nimish,modal,first,1,Male,Yes,3,32,No
183,8295,audio-button-response,41,1692027,0.0-9.0-10.0,15647,group2,yes,prosody_paired_samples/NimishP/Literal_IR_box.wav,,1,second,3,box,Nimish,modal,second,1,Male,Yes,3,32,No
184,12149,audio-button-response,42,1704179,0.0-9.0-11.0,15647,group2,yes,prosody_paired_samples/NimishP/IR_Literal_car.wav,,0,first,1,car,Nimish,indirect,first,1,Male,Yes,3,32,No
185,8286,audio-button-response,43,1712468,0.0-10.0-0.0,15647,group2,yes,prosody_paired_samples/KarenL/literal_IR_Spanish.wav,,1,second,10,spanish,Karen,modal,second,1,Male,Yes,3,32,No
186,14917,audio-button-response,44,1727389,0.0-10.0-1.0,15647,group2,yes,prosody_paired_samples/KarenL/IR_literal_back.wav,,1,first,2,back,Karen,indirect,second,0,Male,Yes,3,32,No
187,5156,audio-button-response,45,1732548,0.0-10.0-2.0,15647,group2,yes,prosody_paired_samples/KarenL/literal_IR_box.wav,,0,second,3,box,Karen,modal,first,0,Male,Yes,3,32,No
188,5813,audio-button-response,46,1738363,0.0-10.0-3.0,15647,group2,yes,prosody_paired_samples/KarenL/IR_literal_temp.wav,,1,first,12,temperature,Karen,modal,second,0,Male,Yes,3,32,No
189,5646,audio-button-response,47,1744011,0.0-10.0-4.0,15647,group2,yes,prosody_paired_samples/KarenL/literal_IR_window.wav,,0,second,11,window,Karen,modal,first,0,Male,Yes,3,32,No
190,7062,audio-button-response,48,1751075,0.0-10.0-5.0,15647,group2,yes,prosody_paired_samples/KarenL/literal_IR_phone.wav,,1,second,7,phone,Karen,indirect,second,1,Male,Yes,3,32,No
191,5886,audio-button-response,49,1756963,0.0-10.0-6.0,15647,group2,yes,prosody_paired_samples/KarenL/literal_IR_laptop.wav,,0,second,5,laptop,Karen,indirect,first,0,Male,Yes,3,32,No
192,5471,audio-button-response,50,1762436,0.0-10.0-7.0,15647,group2,yes,prosody_paired_samples/KarenL/literal_IR_piano.wav,,1,second,8,piano,Karen,modal,second,1,Male,Yes,3,32,No
193,6164,audio-button-response,51,1768602,0.0-10.0-8.0,15647,group2,yes,prosody_paired_samples/KarenL/IR_literal_car.wav,,0,first,1,car,Karen,indirect,first,1,Male,Yes,3,32,No
194,5464,audio-button-response,52,1774068,0.0-10.0-9.0,15647,group2,yes,prosody_paired_samples/KarenL/IR_literal_soup.wav,,0,first,9,soup,Karen,indirect,first,1,Male,Yes,3,32,No
195,5534,audio-button-response,53,1779603,0.0-10.0-10.0,15647,group2,yes,prosody_paired_samples/KarenL/IR_literal_door.wav,,0,first,4,door,Karen,modal,first,1,Male,Yes,3,32,No
196,5605,audio-button-response,54,1785211,0.0-10.0-11.0,15647,group2,yes,prosody_paired_samples/KarenL/IR_literal_office.wav,,1,first,6,office,Karen,indirect,second,0,Male,Yes,3,32,No
197,5709,audio-button-response,55,1790925,0.0-11.0-0.0,15647,group2,yes,prosody_paired_samples/DannyK/IR_literal_soup.wav,,0,first,9,soup,Danny,indirect,first,1,Male,Yes,3,32,No
198,20341,audio-button-response,56,1811267,0.0-11.0-1.0,15647,group2,yes,prosody_paired_samples/DannyK/IR_literal_office.wav,,1,first,6,office,Danny,indirect,second,0,Male,Yes,3,32,No
199,6581,audio-button-response,57,1817852,0.0-11.0-2.0,15647,group2,yes,prosody_paired_samples/DannyK/literal_IR_car.wav,,0,second,1,car,Danny,indirect,first,0,Male,Yes,3,32,No
200,8542,audio-button-response,58,1826397,0.0-11.0-3.0,15647,group2,yes,prosody_paired_samples/DannyK/literal_IR_laptop.wav,,1,second,5,laptop,Danny,indirect,second,1,Male,Yes,3,32,No
201,7972,audio-button-response,59,1834371,0.0-11.0-4.0,15647,group2,yes,prosody_paired_samples/DannyK/IR_literal_phone.wav,,0,first,7,phone,Danny,indirect,first,1,Male,Yes,3,32,No
202,5517,audio-button-response,60,1839891,0.0-11.0-5.0,15647,group2,yes,prosody_paired_samples/DannyK/IR_literal_box.wav,,1,first,3,box,Danny,modal,second,0,Male,Yes,3,32,No
203,6758,audio-button-response,61,1846651,0.0-11.0-6.0,15647,group2,yes,prosody_paired_samples/DannyK/IR_literal_door.wav,,0,first,4,door,Danny,modal,first,1,Male,Yes,3,32,No
204,7215,audio-button-response,62,1853868,0.0-11.0-7.0,15647,group2,yes,prosody_paired_samples/DannyK/IR_literal_Spanish.wav,,0,first,10,spanish,Danny,modal,first,1,Male,Yes,3,32,No
205,6749,audio-button-response,63,1860621,0.0-11.0-8.0,15647,group2,yes,prosody_paired_samples/DannyK/literal_IR_window.wav,,1,second,11,window,Danny,modal,second,1,Male,Yes,3,32,No
206,8637,audio-button-response,64,1869260,0.0-11.0-9.0,15647,group2,yes,prosody_paired_samples/DannyK/literal_IR_back.wav,,1,second,2,back,Danny,indirect,second,1,Male,Yes,3,32,No
207,10189,audio-button-response,65,1879452,0.0-11.0-10.0,15647,group2,yes,prosody_paired_samples/DannyK/literal_IR_piano.wav,,0,second,8,piano,Danny,modal,first,0,Male,Yes,3,32,No
208,8725,audio-button-response,66,1888180,0.0-11.0-11.0,15647,group2,yes,prosody_paired_samples/DannyK/literal_IR_temp.wav,,1,second,12,temperature,Danny,modal,second,1,Male,Yes,3,32,No
209,10437,survey-text,67,1898623,0.0-12.0,15647,group2,yes,,debrief,,,,,,,,0,Male,Yes,3,32,No
210,11435,survey-multi-choice,68,1910090,0.0-13.0,15647,group2,yes,,demographic1,,,,,,,,0,Male,Yes,3,32,No
211,5403,survey-text,69,1915503,0.0-14.0,15647,group2,yes,,age,,,,,,,,0,Male,Yes,3,32,No
212,7268,survey-text,70,1922774,0.0-15.0,15647,group2,yes,,,,,,,,,,0,Male,Yes,3,32,No
213,67623,instructions,0,67626,0.0-0.0,16736,group2,yes,,,,,,,,,,0,Female,Yes,2,54,No
214,26954,external-html,1,94979,0.0-1.0,16736,group2,yes,,,,,,,,,,0,Female,Yes,2,54,No
215,6324,instructions,2,101303,0.0-2.0,16736,group2,yes,,,,,,,,,,0,Female,Yes,2,54,No
216,,video,3,110477,0.0-3.0,16736,group2,yes,"[""prosody_paired_samples/audio_calibration.mp4""]",calibration,,,,,,,,0,Female,Yes,2,54,No
217,7290,instructions,4,117768,0.0-4.0,16736,group2,yes,,,,,,,,,,0,Female,Yes,2,54,No
218,4383,audio-button-response,5,122162,0.0-5.0,16736,group2,yes,prosody_paired_samples/ears_audio_check.wav,test,2,,,,,,,0,Female,Yes,2,54,No
219,42354,instructions,6,168083,0.0-6.0-0.0,16736,group2,yes,,,,,,,,,,0,Female,Yes,2,54,No
220,9674,audio-button-response,7,177760,0.0-7.0-0.0,16736,group2,yes,prosody_paired_samples/NimishP/Literal_IR_temp.wav,,1,second,12,temperature,Nimish,modal,second,1,Female,Yes,2,54,No
221,8957,audio-button-response,8,186720,0.0-7.0-1.0,16736,group2,yes,prosody_paired_samples/NimishP/IR_Literal_laptop.wav,,0,first,5,laptop,Nimish,indirect,first,1,Female,Yes,2,54,No
222,9532,audio-button-response,9,196254,0.0-7.0-2.0,16736,group2,yes,prosody_paired_samples/NimishP/IR_Literal_box.wav,,0,first,3,box,Nimish,modal,first,1,Female,Yes,2,54,No
223,7121,audio-button-response,10,203378,0.0-7.0-3.0,16736,group2,yes,prosody_paired_samples/NimishP/IR_Literal_window.wav,,0,first,11,window,Nimish,modal,first,1,Female,Yes,2,54,No
224,6722,audio-button-response,11,210102,0.0-7.0-4.0,16736,group2,yes,prosody_paired_samples/NimishP/Literal_IR_Spanish.wav,,1,second,10,spanish,Nimish,modal,second,1,Female,Yes,2,54,No
225,5495,audio-button-response,12,215599,0.0-7.0-5.0,16736,group2,yes,prosody_paired_samples/NimishP/Literal_IR_phone.wav,,1,second,7,phone,Nimish,indirect,second,1,Female,Yes,2,54,No
226,7963,audio-button-response,13,223564,0.0-7.0-6.0,16736,group2,yes,prosody_paired_samples/NimishP/Literal_IR_car.wav,,1,second,1,car,Nimish,indirect,second,1,Female,Yes,2,54,No
227,6229,audio-button-response,14,229796,0.0-7.0-7.0,16736,group2,yes,prosody_paired_samples/NimishP/Literal_IR_office.wav,,1,second,6,office,Nimish,indirect,second,1,Female,Yes,2,54,No
228,9516,audio-button-response,15,239316,0.0-7.0-8.0,16736,group2,yes,prosody_paired_samples/NimishP/IR_Literal_back.wav,,0,first,2,back,Nimish,indirect,first,1,Female,Yes,2,54,No
229,6775,audio-button-response,16,246094,0.0-7.0-9.0,16736,group2,yes,prosody_paired_samples/NimishP/IR_Literal_piano.wav,,0,first,8,piano,Nimish,modal,first,1,Female,Yes,2,54,No
230,4940,audio-button-response,17,251036,0.0-7.0-10.0,16736,group2,yes,prosody_paired_samples/NimishP/IR_Literal_door.wav,,0,first,4,door,Nimish,modal,first,1,Female,Yes,2,54,No
231,5911,audio-button-response,18,256950,0.0-7.0-11.0,16736,group2,yes,prosody_paired_samples/NimishP/Literal_IR_soup.wav,,1,second,9,soup,Nimish,indirect,second,1,Female,Yes,2,54,No
232,6596,audio-button-response,19,263550,0.0-8.0-0.0,16736,group2,yes,prosody_paired_samples/KatieS/Literal_IR_back.wav,,1,second,2,back,Katie,indirect,second,1,Female,Yes,2,54,No
233,5658,audio-button-response,20,269212,0.0-8.0-1.0,16736,group2,yes,prosody_paired_samples/KatieS/IR_Literal_box.wav,,1,first,3,box,Katie,modal,second,0,Female,Yes,2,54,No
234,14874,audio-button-response,21,284089,0.0-8.0-2.0,16736,group2,yes,prosody_paired_samples/KatieS/Literal_IR_Spanish.wav,,0,second,10,spanish,Katie,modal,first,0,Female,Yes,2,54,No
235,6609,audio-button-response,22,290701,0.0-8.0-3.0,16736,group2,yes,prosody_paired_samples/KatieS/Literal_IR_phone.wav,,0,second,7,phone,Katie,indirect,first,0,Female,Yes,2,54,No
236,7092,audio-button-response,23,297795,0.0-8.0-4.0,16736,group2,yes,prosody_paired_samples/KatieS/IR_Literal_temp.wav,,1,first,12,temperature,Katie,modal,second,0,Female,Yes,2,54,No
237,5157,audio-button-response,24,302955,0.0-8.0-5.0,16736,group2,yes,prosody_paired_samples/KatieS/IR_Literal_piano.wav,,1,first,8,piano,Katie,modal,second,0,Female,Yes,2,54,No
238,7233,audio-button-response,25,310193,0.0-8.0-6.0,16736,group2,yes,prosody_paired_samples/KatieS/IR_Literal_car.wav,,0,first,1,car,Katie,indirect,first,1,Female,Yes,2,54,No
239,8048,audio-button-response,26,318244,0.0-8.0-7.0,16736,group2,yes,prosody_paired_samples/KatieS/Literal_IR_laptop.wav,,0,second,5,laptop,Katie,indirect,first,0,Female,Yes,2,54,No
240,4903,audio-button-response,27,323153,0.0-8.0-8.0,16736,group2,yes,prosody_paired_samples/KatieS/Literal_IR_door.wav,,0,second,4,door,Katie,modal,first,0,Female,Yes,2,54,No
241,7943,audio-button-response,28,331098,0.0-8.0-9.0,16736,group2,yes,prosody_paired_samples/KatieS/IR_Literal_office.wav,,0,first,6,office,Katie,indirect,first,1,Female,Yes,2,54,No
242,5051,audio-button-response,29,336152,0.0-8.0-10.0,16736,group2,yes,prosody_paired_samples/KatieS/IR_Literal_soup.wav,,1,first,9,soup,Katie,indirect,second,0,Female,Yes,2,54,No
243,4937,audio-button-response,30,341091,0.0-8.0-11.0,16736,group2,yes,prosody_paired_samples/KatieS/Literal_IR_window.wav,,1,second,11,window,Katie,modal,second,1,Female,Yes,2,54,No
244,5194,audio-button-response,31,346288,0.0-9.0-0.0,16736,group2,yes,prosody_paired_samples/KarenL/literal_IR_soup.wav,,1,second,9,soup,Karen,indirect,second,1,Female,Yes,2,54,No
245,5623,audio-button-response,32,351915,0.0-9.0-1.0,16736,group2,yes,prosody_paired_samples/KarenL/IR_literal_office.wav,,1,first,6,office,Karen,indirect,second,0,Female,Yes,2,54,No
246,5761,audio-button-response,33,357677,0.0-9.0-2.0,16736,group2,yes,prosody_paired_samples/KarenL/IR_literal_piano.wav,,1,first,8,piano,Karen,modal,second,0,Female,Yes,2,54,No
247,5975,audio-button-response,34,363656,0.0-9.0-3.0,16736,group2,yes,prosody_paired_samples/KarenL/IR_literal_door.wav,,0,first,4,door,Karen,modal,first,1,Female,Yes,2,54,No
248,5747,audio-button-response,35,369406,0.0-9.0-4.0,16736,group2,yes,prosody_paired_samples/KarenL/IR_literal_car.wav,,0,first,1,car,Karen,indirect,first,1,Female,Yes,2,54,No
249,6543,audio-button-response,36,375953,0.0-9.0-5.0,16736,group2,yes,prosody_paired_samples/KarenL/literal_IR_temp.wav,,1,second,12,temperature,Karen,modal,second,1,Female,Yes,2,54,No
250,5014,audio-button-response,37,380968,0.0-9.0-6.0,16736,group2,yes,prosody_paired_samples/KarenL/literal_IR_window.wav,,1,second,11,window,Karen,modal,second,1,Female,Yes,2,54,No
251,6205,audio-button-response,38,387176,0.0-9.0-7.0,16736,group2,yes,prosody_paired_samples/KarenL/IR_literal_laptop.wav,,0,first,5,laptop,Karen,indirect,first,1,Female,Yes,2,54,No
252,5017,audio-button-response,39,392196,0.0-9.0-8.0,16736,group2,yes,prosody_paired_samples/KarenL/literal_IR_phone.wav,,1,second,7,phone,Karen,indirect,second,1,Female,Yes,2,54,No
253,5967,audio-button-response,40,398166,0.0-9.0-9.0,16736,group2,yes,prosody_paired_samples/KarenL/literal_IR_box.wav,,1,second,3,box,Karen,modal,second,1,Female,Yes,2,54,No
254,5369,audio-button-response,41,403538,0.0-9.0-10.0,16736,group2,yes,prosody_paired_samples/KarenL/IR_literal_Spanish.wav,,1,first,10,spanish,Karen,modal,second,0,Female,Yes,2,54,No
255,4960,audio-button-response,42,408501,0.0-9.0-11.0,16736,group2,yes,prosody_paired_samples/KarenL/literal_IR_back.wav,,1,second,2,back,Karen,indirect,second,1,Female,Yes,2,54,No
256,5797,audio-button-response,43,414300,0.0-10.0-0.0,16736,group2,yes,prosody_paired_samples/MaiyiY/literal_IR_temp.wav,,1,second,12,temperature,Maiyi,modal,second,1,Female,Yes,2,54,No
257,5259,audio-button-response,44,419560,0.0-10.0-1.0,16736,group2,yes,prosody_paired_samples/MaiyiY/literal_IR_laptop.wav,,1,second,5,laptop,Maiyi,indirect,second,1,Female,Yes,2,54,No
258,6053,audio-button-response,45,425617,0.0-10.0-2.0,16736,group2,yes,prosody_paired_samples/MaiyiY/IR_literal_office.wav,,0,first,6,office,Maiyi,indirect,first,1,Female,Yes,2,54,No
259,5368,audio-button-response,46,430989,0.0-10.0-3.0,16736,group2,yes,prosody_paired_samples/MaiyiY/literal_IR_window.wav,,1,second,11,window,Maiyi,modal,second,1,Female,Yes,2,54,No
260,5988,audio-button-response,47,436978,0.0-10.0-4.0,16736,group2,yes,prosody_paired_samples/MaiyiY/IR_literal_Spanish.wav,,0,first,10,spanish,Maiyi,modal,first,1,Female,Yes,2,54,No
261,5396,audio-button-response,48,442377,0.0-10.0-5.0,16736,group2,yes,prosody_paired_samples/MaiyiY/literal_IR_phone.wav,,0,second,7,phone,Maiyi,indirect,first,0,Female,Yes,2,54,No
262,5209,audio-button-response,49,447589,0.0-10.0-6.0,16736,group2,yes,prosody_paired_samples/MaiyiY/IR_literal_box.wav,,0,first,3,box,Maiyi,modal,first,1,Female,Yes,2,54,No
263,5573,audio-button-response,50,453167,0.0-10.0-7.0,16736,group2,yes,prosody_paired_samples/MaiyiY/IR_literal_car.wav,,1,first,1,car,Maiyi,indirect,second,0,Female,Yes,2,54,No
264,5432,audio-button-response,51,458600,0.0-10.0-8.0,16736,group2,yes,prosody_paired_samples/MaiyiY/IR_literal_soup.wav,,1,first,9,soup,Maiyi,indirect,second,0,Female,Yes,2,54,No
265,4918,audio-button-response,52,463520,0.0-10.0-9.0,16736,group2,yes,prosody_paired_samples/MaiyiY/literal_IR_door.wav,,1,second,4,door,Maiyi,modal,second,1,Female,Yes,2,54,No
266,5068,audio-button-response,53,468591,0.0-10.0-10.0,16736,group2,yes,prosody_paired_samples/MaiyiY/literal_IR_back.wav,,1,second,2,back,Maiyi,indirect,second,1,Female,Yes,2,54,No
267,4488,audio-button-response,54,473081,0.0-10.0-11.0,16736,group2,yes,prosody_paired_samples/MaiyiY/IR_literal_piano.wav,,1,first,8,piano,Maiyi,modal,second,0,Female,Yes,2,54,No
268,5835,audio-button-response,55,478919,0.0-11.0-0.0,16736,group2,yes,prosody_paired_samples/DannyK/literal_IR_piano.wav,,0,second,8,piano,Danny,modal,first,0,Female,Yes,2,54,No
269,7369,audio-button-response,56,486291,0.0-11.0-1.0,16736,group2,yes,prosody_paired_samples/DannyK/IR_literal_temp.wav,,1,first,12,temperature,Danny,modal,second,0,Female,Yes,2,54,No
270,6037,audio-button-response,57,492331,0.0-11.0-2.0,16736,group2,yes,prosody_paired_samples/DannyK/literal_IR_office.wav,,1,second,6,office,Danny,indirect,second,1,Female,Yes,2,54,No
271,5380,audio-button-response,58,497713,0.0-11.0-3.0,16736,group2,yes,prosody_paired_samples/DannyK/literal_IR_laptop.wav,,1,second,5,laptop,Danny,indirect,second,1,Female,Yes,2,54,No
272,5298,audio-button-response,59,503014,0.0-11.0-4.0,16736,group2,yes,prosody_paired_samples/DannyK/IR_literal_back.wav,,1,first,2,back,Danny,indirect,second,0,Female,Yes,2,54,No
273,5835,audio-button-response,60,508852,0.0-11.0-5.0,16736,group2,yes,prosody_paired_samples/DannyK/literal_IR_car.wav,,0,second,1,car,Danny,indirect,first,0,Female,Yes,2,54,No
274,4969,audio-button-response,61,513823,0.0-11.0-6.0,16736,group2,yes,prosody_paired_samples/DannyK/IR_literal_window.wav,,1,first,11,window,Danny,modal,second,0,Female,Yes,2,54,No
275,5493,audio-button-response,62,519317,0.0-11.0-7.0,16736,group2,yes,prosody_paired_samples/DannyK/literal_IR_box.wav,,1,second,3,box,Danny,modal,second,1,Female,Yes,2,54,No
276,6676,audio-button-response,63,525996,0.0-11.0-8.0,16736,group2,yes,prosody_paired_samples/DannyK/literal_IR_Spanish.wav,,0,second,10,spanish,Danny,modal,first,0,Female,Yes,2,54,No
277,6854,audio-button-response,64,532853,0.0-11.0-9.0,16736,group2,yes,prosody_paired_samples/DannyK/IR_literal_phone.wav,,1,first,7,phone,Danny,indirect,second,0,Female,Yes,2,54,No
278,5754,audio-button-response,65,538609,0.0-11.0-10.0,16736,group2,yes,prosody_paired_samples/DannyK/IR_literal_soup.wav,,0,first,9,soup,Danny,indirect,first,1,Female,Yes,2,54,No
279,5589,audio-button-response,66,544202,0.0-11.0-11.0,16736,group2,yes,prosody_paired_samples/DannyK/IR_literal_door.wav,,1,first,4,door,Danny,modal,second,0,Female,Yes,2,54,No
280,24454,survey-text,67,568660,0.0-12.0,16736,group2,yes,,debrief,,,,,,,,0,Female,Yes,2,54,No
281,20701,survey-multi-choice,68,589383,0.0-13.0,16736,group2,yes,,demographic1,,,,,,,,0,Female,Yes,2,54,No
282,4680,survey-text,69,594073,0.0-14.0,16736,group2,yes,,age,,,,,,,,0,Female,Yes,2,54,No
283,42793,survey-text,70,636869,0.0-15.0,16736,group2,yes,,,,,,,,,,0,Female,Yes,2,54,No
284,17410,instructions,0,17411,0.0-0.0,16783,group1,yes,,,,,,,,,,0,Male,Yes,4,30,No
285,6783,external-html,1,24385,0.0-1.0,16783,group1,yes,,,,,,,,,,0,Male,Yes,4,30,No
286,3147,instructions,2,27532,0.0-2.0,16783,group1,yes,,,,,,,,,,0,Male,Yes,4,30,No
287,,video,3,36051,0.0-3.0,16783,group1,yes,"[""prosody_paired_samples/audio_calibration.mp4""]",calibration,,,,,,,,0,Male,Yes,4,30,No
288,2977,instructions,4,39029,0.0-4.0,16783,group1,yes,,,,,,,,,,0,Male,Yes,4,30,No
289,3424,audio-button-response,5,42454,0.0-5.0,16783,group1,yes,prosody_paired_samples/ears_audio_check.wav,test,2,,,,,,,0,Male,Yes,4,30,No
290,28459,instructions,6,72201,0.0-6.0-0.0,16783,group1,yes,,,,,,,,,,0,Male,Yes,4,30,No
291,5265,audio-button-response,7,77468,0.0-7.0-0.0,16783,group1,yes,prosody_paired_samples/DannyK/literal_IR_box.wav,,0,second,3,box,Danny,modal,first,0,Male,Yes,4,30,No
292,7975,audio-button-response,8,85444,0.0-7.0-1.0,16783,group1,yes,prosody_paired_samples/DannyK/IR_literal_back.wav,,1,first,2,back,Danny,indirect,second,0,Male,Yes,4,30,No
293,5893,audio-button-response,9,91338,0.0-7.0-2.0,16783,group1,yes,prosody_paired_samples/DannyK/IR_literal_laptop.wav,,0,first,5,laptop,Danny,indirect,first,1,Male,Yes,4,30,No
294,7604,audio-button-response,10,98943,0.0-7.0-3.0,16783,group1,yes,prosody_paired_samples/DannyK/literal_IR_temp.wav,,0,second,12,temperature,Danny,modal,first,0,Male,Yes,4,30,No
295,6173,audio-button-response,11,105116,0.0-7.0-4.0,16783,group1,yes,prosody_paired_samples/DannyK/IR_literal_office.wav,,0,first,6,office,Danny,indirect,first,1,Male,Yes,4,30,No
296,5557,audio-button-response,12,110673,0.0-7.0-5.0,16783,group1,yes,prosody_paired_samples/DannyK/literal_IR_window.wav,,0,second,11,window,Danny,modal,first,0,Male,Yes,4,30,No
297,5012,audio-button-response,13,115686,0.0-7.0-6.0,16783,group1,yes,prosody_paired_samples/DannyK/literal_IR_phone.wav,,1,second,7,phone,Danny,indirect,second,1,Male,Yes,4,30,No
298,5083,audio-button-response,14,120769,0.0-7.0-7.0,16783,group1,yes,prosody_paired_samples/DannyK/literal_IR_piano.wav,,0,second,8,piano,Danny,modal,first,0,Male,Yes,4,30,No
299,5572,audio-button-response,15,126342,0.0-7.0-8.0,16783,group1,yes,prosody_paired_samples/DannyK/literal_IR_car.wav,,0,second,1,car,Danny,indirect,first,0,Male,Yes,4,30,No
300,4800,audio-button-response,16,131142,0.0-7.0-9.0,16783,group1,yes,prosody_paired_samples/DannyK/IR_literal_soup.wav,,0,first,9,soup,Danny,indirect,first,1,Male,Yes,4,30,No
301,6491,audio-button-response,17,137634,0.0-7.0-10.0,16783,group1,yes,prosody_paired_samples/DannyK/IR_literal_door.wav,,1,first,4,door,Danny,modal,second,0,Male,Yes,4,30,No
302,5563,audio-button-response,18,143199,0.0-7.0-11.0,16783,group1,yes,prosody_paired_samples/DannyK/IR_literal_Spanish.wav,,0,first,10,spanish,Danny,modal,first,1,Male,Yes,4,30,No
303,5611,audio-button-response,19,148810,0.0-8.0-0.0,16783,group1,yes,prosody_paired_samples/MaiyiY/literal_IR_office.wav,,0,second,6,office,Maiyi,indirect,first,0,Male,Yes,4,30,No
304,5393,audio-button-response,20,154204,0.0-8.0-1.0,16783,group1,yes,prosody_paired_samples/MaiyiY/literal_IR_car.wav,,1,second,1,car,Maiyi,indirect,second,1,Male,Yes,4,30,No
305,5520,audio-button-response,21,159724,0.0-8.0-2.0,16783,group1,yes,prosody_paired_samples/MaiyiY/IR_literal_temp.wav,,0,first,12,temperature,Maiyi,modal,first,1,Male,Yes,4,30,No
306,5007,audio-button-response,22,164732,0.0-8.0-3.0,16783,group1,yes,prosody_paired_samples/MaiyiY/literal_IR_door.wav,,1,second,4,door,Maiyi,modal,second,1,Male,Yes,4,30,No
307,5345,audio-button-response,23,170077,0.0-8.0-4.0,16783,group1,yes,prosody_paired_samples/MaiyiY/IR_literal_back.wav,,0,first,2,back,Maiyi,indirect,first,1,Male,Yes,4,30,No
308,5140,audio-button-response,24,175217,0.0-8.0-5.0,16783,group1,yes,prosody_paired_samples/MaiyiY/literal_IR_piano.wav,,1,second,8,piano,Maiyi,modal,second,1,Male,Yes,4,30,No
309,6098,audio-button-response,25,181316,0.0-8.0-6.0,16783,group1,yes,prosody_paired_samples/MaiyiY/IR_literal_laptop.wav,,0,first,5,laptop,Maiyi,indirect,first,1,Male,Yes,4,30,No
310,5182,audio-button-response,26,186498,0.0-8.0-7.0,16783,group1,yes,prosody_paired_samples/MaiyiY/literal_IR_phone.wav,,0,second,7,phone,Maiyi,indirect,first,0,Male,Yes,4,30,No
311,5298,audio-button-response,27,191797,0.0-8.0-8.0,16783,group1,yes,prosody_paired_samples/MaiyiY/IR_literal_soup.wav,,0,first,9,soup,Maiyi,indirect,first,1,Male,Yes,4,30,No
312,5050,audio-button-response,28,196847,0.0-8.0-9.0,16783,group1,yes,prosody_paired_samples/MaiyiY/literal_IR_window.wav,,1,second,11,window,Maiyi,modal,second,1,Male,Yes,4,30,No
313,4864,audio-button-response,29,201713,0.0-8.0-10.0,16783,group1,yes,prosody_paired_samples/MaiyiY/IR_literal_Spanish.wav,,0,first,10,spanish,Maiyi,modal,first,1,Male,Yes,4,30,No
314,3138,audio-button-response,30,204852,0.0-8.0-11.0,16783,group1,yes,prosody_paired_samples/MaiyiY/IR_literal_box.wav,,0,first,3,box,Maiyi,modal,first,1,Male,Yes,4,30,No
315,4925,audio-button-response,31,209778,0.0-9.0-0.0,16783,group1,yes,prosody_paired_samples/KarenL/literal_IR_soup.wav,,1,second,9,soup,Karen,indirect,second,1,Male,Yes,4,30,No
316,5604,audio-button-response,32,215383,0.0-9.0-1.0,16783,group1,yes,prosody_paired_samples/KarenL/literal_IR_temp.wav,,0,second,12,temperature,Karen,modal,first,0,Male,Yes,4,30,No
317,5574,audio-button-response,33,220957,0.0-9.0-2.0,16783,group1,yes,prosody_paired_samples/KarenL/IR_literal_window.wav,,1,first,11,window,Karen,modal,second,0,Male,Yes,4,30,No
318,5820,audio-button-response,34,226779,0.0-9.0-3.0,16783,group1,yes,prosody_paired_samples/KarenL/IR_literal_Spanish.wav,,0,first,10,spanish,Karen,modal,first,1,Male,Yes,4,30,No
319,5297,audio-button-response,35,232077,0.0-9.0-4.0,16783,group1,yes,prosody_paired_samples/KarenL/IR_literal_car.wav,,0,first,1,car,Karen,indirect,first,1,Male,Yes,4,30,No
320,6157,audio-button-response,36,238235,0.0-9.0-5.0,16783,group1,yes,prosody_paired_samples/KarenL/IR_literal_back.wav,,0,first,2,back,Karen,indirect,first,1,Male,Yes,4,30,No
321,4848,audio-button-response,37,243084,0.0-9.0-6.0,16783,group1,yes,prosody_paired_samples/KarenL/IR_literal_box.wav,,0,first,3,box,Karen,modal,first,1,Male,Yes,4,30,No
322,5316,audio-button-response,38,248400,0.0-9.0-7.0,16783,group1,yes,prosody_paired_samples/KarenL/literal_IR_office.wav,,0,second,6,office,Karen,indirect,first,0,Male,Yes,4,30,No
323,6214,audio-button-response,39,254615,0.0-9.0-8.0,16783,group1,yes,prosody_paired_samples/KarenL/literal_IR_piano.wav,,1,second,8,piano,Karen,modal,second,1,Male,Yes,4,30,No
324,5200,audio-button-response,40,259816,0.0-9.0-9.0,16783,group1,yes,prosody_paired_samples/KarenL/literal_IR_laptop.wav,,0,second,5,laptop,Karen,indirect,first,0,Male,Yes,4,30,No
325,4093,audio-button-response,41,263910,0.0-9.0-10.0,16783,group1,yes,prosody_paired_samples/KarenL/literal_IR_door.wav,,0,second,4,door,Karen,modal,first,0,Male,Yes,4,30,No
326,4612,audio-button-response,42,268522,0.0-9.0-11.0,16783,group1,yes,prosody_paired_samples/KarenL/IR_literal_phone.wav,,0,first,7,phone,Karen,indirect,first,1,Male,Yes,4,30,No
327,2701,audio-button-response,43,271223,0.0-10.0-0.0,16783,group1,yes,prosody_paired_samples/KatieS/IR_Literal_window.wav,,0,first,11,window,Katie,modal,first,1,Male,Yes,4,30,No
328,4496,audio-button-response,44,275719,0.0-10.0-1.0,16783,group1,yes,prosody_paired_samples/KatieS/Literal_IR_phone.wav,,1,second,7,phone,Katie,indirect,second,1,Male,Yes,4,30,No
329,2314,audio-button-response,45,278033,0.0-10.0-2.0,16783,group1,yes,prosody_paired_samples/KatieS/Literal_IR_piano.wav,,0,second,8,piano,Katie,modal,first,0,Male,Yes,4,30,No
330,2436,audio-button-response,46,280471,0.0-10.0-3.0,16783,group1,yes,prosody_paired_samples/KatieS/Literal_IR_car.wav,,0,second,1,car,Katie,indirect,first,0,Male,Yes,4,30,No
331,2342,audio-button-response,47,282813,0.0-10.0-4.0,16783,group1,yes,prosody_paired_samples/KatieS/IR_Literal_temp.wav,,0,first,12,temperature,Katie,modal,first,1,Male,Yes,4,30,No
332,5717,audio-button-response,48,288531,0.0-10.0-5.0,16783,group1,yes,prosody_paired_samples/KatieS/Literal_IR_office.wav,,0,second,6,office,Katie,indirect,first,0,Male,Yes,4,30,No
333,4431,audio-button-response,49,292962,0.0-10.0-6.0,16783,group1,yes,prosody_paired_samples/KatieS/Literal_IR_soup.wav,,1,second,9,soup,Katie,indirect,second,1,Male,Yes,4,30,No
334,2552,audio-button-response,50,295516,0.0-10.0-7.0,16783,group1,yes,prosody_paired_samples/KatieS/IR_Literal_door.wav,,0,first,4,door,Katie,modal,first,1,Male,Yes,4,30,No
335,2402,audio-button-response,51,297918,0.0-10.0-8.0,16783,group1,yes,prosody_paired_samples/KatieS/IR_Literal_Spanish.wav,,0,first,10,spanish,Katie,modal,first,1,Male,Yes,4,30,No
336,2212,audio-button-response,52,300131,0.0-10.0-9.0,16783,group1,yes,prosody_paired_samples/KatieS/IR_Literal_box.wav,,0,first,3,box,Katie,modal,first,1,Male,Yes,4,30,No
337,4659,audio-button-response,53,304790,0.0-10.0-10.0,16783,group1,yes,prosody_paired_samples/KatieS/Literal_IR_back.wav,,1,second,2,back,Katie,indirect,second,1,Male,Yes,4,30,No
338,5252,audio-button-response,54,310043,0.0-10.0-11.0,16783,group1,yes,prosody_paired_samples/KatieS/IR_Literal_laptop.wav,,0,first,5,laptop,Katie,indirect,first,1,Male,Yes,4,30,No
339,2675,audio-button-response,55,312718,0.0-11.0-0.0,16783,group1,yes,prosody_paired_samples/NimishP/Literal_IR_phone.wav,,0,second,7,phone,Nimish,indirect,first,0,Male,Yes,4,30,No
340,2584,audio-button-response,56,315303,0.0-11.0-1.0,16783,group1,yes,prosody_paired_samples/NimishP/IR_Literal_laptop.wav,,0,first,5,laptop,Nimish,indirect,first,1,Male,Yes,4,30,No
341,2252,audio-button-response,57,317556,0.0-11.0-2.0,16783,group1,yes,prosody_paired_samples/NimishP/Literal_IR_box.wav,,0,second,3,box,Nimish,modal,first,0,Male,Yes,4,30,No
342,2534,audio-button-response,58,320091,0.0-11.0-3.0,16783,group1,yes,prosody_paired_samples/NimishP/IR_Literal_Spanish.wav,,0,first,10,spanish,Nimish,modal,first,1,Male,Yes,4,30,No
343,4877,audio-button-response,59,324968,0.0-11.0-4.0,16783,group1,yes,prosody_paired_samples/NimishP/Literal_IR_window.wav,,1,second,11,window,Nimish,modal,second,1,Male,Yes,4,30,No
344,5242,audio-button-response,60,330210,0.0-11.0-5.0,16783,group1,yes,prosody_paired_samples/NimishP/IR_Literal_soup.wav,,0,first,9,soup,Nimish,indirect,first,1,Male,Yes,4,30,No
345,5297,audio-button-response,61,335508,0.0-11.0-6.0,16783,group1,yes,prosody_paired_samples/NimishP/Literal_IR_car.wav,,1,second,1,car,Nimish,indirect,second,1,Male,Yes,4,30,No
346,4203,audio-button-response,62,339712,0.0-11.0-7.0,16783,group1,yes,prosody_paired_samples/NimishP/IR_Literal_temp.wav,,0,first,12,temperature,Nimish,modal,first,1,Male,Yes,4,30,No
347,5284,audio-button-response,63,344996,0.0-11.0-8.0,16783,group1,yes,prosody_paired_samples/NimishP/Literal_IR_office.wav,,1,second,6,office,Nimish,indirect,second,1,Male,Yes,4,30,No
348,5486,audio-button-response,64,350483,0.0-11.0-9.0,16783,group1,yes,prosody_paired_samples/NimishP/IR_Literal_back.wav,,0,first,2,back,Nimish,indirect,first,1,Male,Yes,4,30,No
349,2574,audio-button-response,65,353057,0.0-11.0-10.0,16783,group1,yes,prosody_paired_samples/NimishP/IR_Literal_piano.wav,,0,first,8,piano,Nimish,modal,first,1,Male,Yes,4,30,No
350,4363,audio-button-response,66,357421,0.0-11.0-11.0,16783,group1,yes,prosody_paired_samples/NimishP/Literal_IR_door.wav,,1,second,4,door,Nimish,modal,second,1,Male,Yes,4,30,No
351,24917,survey-text,67,382338,0.0-12.0,16783,group1,yes,,debrief,,,,,,,,0,Male,Yes,4,30,No
352,7903,survey-multi-choice,68,390245,0.0-13.0,16783,group1,yes,,demographic1,,,,,,,,0,Male,Yes,4,30,No
353,2495,survey-text,69,392742,0.0-14.0,16783,group1,yes,,age,,,,,,,,0,Male,Yes,4,30,No
354,8052,survey-text,70,400795,0.0-15.0,16783,group1,yes,,,,,,,,,,0,Male,Yes,4,30,No
355,1670,instructions,0,1671,0.0-0.0,17141,group1,yes,,,,,,,,,,0,Male,Yes,4,29,No
356,7407,external-html,1,9155,0.0-1.0,17141,group1,yes,,,,,,,,,,0,Male,Yes,4,29,No
357,6452,instructions,2,15607,0.0-2.0,17141,group1,yes,,,,,,,,,,0,Male,Yes,4,29,No
358,,video,3,24313,0.0-3.0,17141,group1,yes,"[""prosody_paired_samples/audio_calibration.mp4""]",calibration,,,,,,,,0,Male,Yes,4,29,No
359,1590,instructions,4,25903,0.0-4.0,17141,group1,yes,,,,,,,,,,0,Male,Yes,4,29,No
360,4560,audio-button-response,5,30466,0.0-5.0,17141,group1,yes,prosody_paired_samples/ears_audio_check.wav,test,2,,,,,,,0,Male,Yes,4,29,No
361,3641,instructions,6,35536,0.0-6.0-0.0,17141,group1,yes,,,,,,,,,,0,Male,Yes,4,29,No
362,9295,audio-button-response,7,44831,0.0-7.0-0.0,17141,group1,yes,prosody_paired_samples/KarenL/literal_IR_laptop.wav,,0,second,5,laptop,Karen,indirect,first,0,Male,Yes,4,29,No
363,6822,audio-button-response,8,51655,0.0-7.0-1.0,17141,group1,yes,prosody_paired_samples/KarenL/IR_literal_window.wav,,1,first,11,window,Karen,modal,second,0,Male,Yes,4,29,No
364,5754,audio-button-response,9,57409,0.0-7.0-2.0,17141,group1,yes,prosody_paired_samples/KarenL/literal_IR_box.wav,,1,second,3,box,Karen,modal,second,1,Male,Yes,4,29,No
365,5973,audio-button-response,10,63382,0.0-7.0-3.0,17141,group1,yes,prosody_paired_samples/KarenL/literal_IR_Spanish.wav,,0,second,10,spanish,Karen,modal,first,0,Male,Yes,4,29,No
366,6642,audio-button-response,11,70025,0.0-7.0-4.0,17141,group1,yes,prosody_paired_samples/KarenL/literal_IR_office.wav,,0,second,6,office,Karen,indirect,first,0,Male,Yes,4,29,No
367,5608,audio-button-response,12,75633,0.0-7.0-5.0,17141,group1,yes,prosody_paired_samples/KarenL/IR_literal_piano.wav,,0,first,8,piano,Karen,modal,first,1,Male,Yes,4,29,No
368,5109,audio-button-response,13,80743,0.0-7.0-6.0,17141,group1,yes,prosody_paired_samples/KarenL/IR_literal_door.wav,,0,first,4,door,Karen,modal,first,1,Male,Yes,4,29,No
369,5775,audio-button-response,14,86518,0.0-7.0-7.0,17141,group1,yes,prosody_paired_samples/KarenL/IR_literal_soup.wav,,0,first,9,soup,Karen,indirect,first,1,Male,Yes,4,29,No
370,5890,audio-button-response,15,92409,0.0-7.0-8.0,17141,group1,yes,prosody_paired_samples/KarenL/IR_literal_car.wav,,0,first,1,car,Karen,indirect,first,1,Male,Yes,4,29,No
371,6395,audio-button-response,16,98804,0.0-7.0-9.0,17141,group1,yes,prosody_paired_samples/KarenL/literal_IR_temp.wav,,0,second,12,temperature,Karen,modal,first,0,Male,Yes,4,29,No
372,6123,audio-button-response,17,104928,0.0-7.0-10.0,17141,group1,yes,prosody_paired_samples/KarenL/literal_IR_back.wav,,0,second,2,back,Karen,indirect,first,0,Male,Yes,4,29,No
373,5695,audio-button-response,18,110625,0.0-7.0-11.0,17141,group1,yes,prosody_paired_samples/KarenL/IR_literal_phone.wav,,0,first,7,phone,Karen,indirect,first,1,Male,Yes,4,29,No
374,5337,audio-button-response,19,115962,0.0-8.0-0.0,17141,group1,yes,prosody_paired_samples/KatieS/Literal_IR_door.wav,,1,second,4,door,Katie,modal,second,1,Male,Yes,4,29,No
375,7085,audio-button-response,20,123048,0.0-8.0-1.0,17141,group1,yes,prosody_paired_samples/KatieS/Literal_IR_temp.wav,,0,second,12,temperature,Katie,modal,first,0,Male,Yes,4,29,No
376,9331,audio-button-response,21,132381,0.0-8.0-2.0,17141,group1,yes,prosody_paired_samples/KatieS/IR_Literal_back.wav,,0,first,2,back,Katie,indirect,first,1,Male,Yes,4,29,No
377,5262,audio-button-response,22,137643,0.0-8.0-3.0,17141,group1,yes,prosody_paired_samples/KatieS/Literal_IR_soup.wav,,1,second,9,soup,Katie,indirect,second,1,Male,Yes,4,29,No
378,5183,audio-button-response,23,142826,0.0-8.0-4.0,17141,group1,yes,prosody_paired_samples/KatieS/IR_Literal_piano.wav,,1,first,8,piano,Katie,modal,second,0,Male,Yes,4,29,No
379,6225,audio-button-response,24,149052,0.0-8.0-5.0,17141,group1,yes,prosody_paired_samples/KatieS/IR_Literal_office.wav,,0,first,6,office,Katie,indirect,first,1,Male,Yes,4,29,No
380,5653,audio-button-response,25,154706,0.0-8.0-6.0,17141,group1,yes,prosody_paired_samples/KatieS/IR_Literal_phone.wav,,0,first,7,phone,Katie,indirect,first,1,Male,Yes,4,29,No
381,5446,audio-button-response,26,160153,0.0-8.0-7.0,17141,group1,yes,prosody_paired_samples/KatieS/IR_Literal_window.wav,,1,first,11,window,Katie,modal,second,0,Male,Yes,4,29,No
382,5463,audio-button-response,27,165617,0.0-8.0-8.0,17141,group1,yes,prosody_paired_samples/KatieS/Literal_IR_Spanish.wav,,0,second,10,spanish,Katie,modal,first,0,Male,Yes,4,29,No
383,5075,audio-button-response,28,170693,0.0-8.0-9.0,17141,group1,yes,prosody_paired_samples/KatieS/Literal_IR_laptop.wav,,0,second,5,laptop,Katie,indirect,first,0,Male,Yes,4,29,No
384,5305,audio-button-response,29,175999,0.0-8.0-10.0,17141,group1,yes,prosody_paired_samples/KatieS/Literal_IR_box.wav,,1,second,3,box,Katie,modal,second,1,Male,Yes,4,29,No
385,6608,audio-button-response,30,182609,0.0-8.0-11.0,17141,group1,yes,prosody_paired_samples/KatieS/IR_Literal_car.wav,,1,first,1,car,Katie,indirect,second,0,Male,Yes,4,29,No
386,6394,audio-button-response,31,189003,0.0-9.0-0.0,17141,group1,yes,prosody_paired_samples/MaiyiY/literal_IR_laptop.wav,,0,second,5,laptop,Maiyi,indirect,first,0,Male,Yes,4,29,No
387,6384,audio-button-response,32,195387,0.0-9.0-1.0,17141,group1,yes,prosody_paired_samples/MaiyiY/literal_IR_Spanish.wav,,1,second,10,spanish,Maiyi,modal,second,1,Male,Yes,4,29,No
388,5276,audio-button-response,33,200663,0.0-9.0-2.0,17141,group1,yes,prosody_paired_samples/MaiyiY/IR_literal_box.wav,,1,first,3,box,Maiyi,modal,second,0,Male,Yes,4,29,No
389,5557,audio-button-response,34,206220,0.0-9.0-3.0,17141,group1,yes,prosody_paired_samples/MaiyiY/IR_literal_temp.wav,,0,first,12,temperature,Maiyi,modal,first,1,Male,Yes,4,29,No
390,137,audio-button-response,35,206360,0.0-9.0-4.0,17141,group1,yes,prosody_paired_samples/MaiyiY/literal_IR_piano.wav,,0,second,8,piano,Maiyi,modal,first,0,Male,Yes,4,29,No
391,5081,audio-button-response,36,211441,0.0-9.0-5.0,17141,group1,yes,prosody_paired_samples/MaiyiY/literal_IR_phone.wav,,0,second,7,phone,Maiyi,indirect,first,0,Male,Yes,4,29,No
392,6158,audio-button-response,37,217599,0.0-9.0-6.0,17141,group1,yes,prosody_paired_samples/MaiyiY/IR_literal_office.wav,,0,first,6,office,Maiyi,indirect,first,1,Male,Yes,4,29,No
393,5613,audio-button-response,38,223213,0.0-9.0-7.0,17141,group1,yes,prosody_paired_samples/MaiyiY/IR_literal_back.wav,,0,first,2,back,Maiyi,indirect,first,1,Male,Yes,4,29,No
394,5456,audio-button-response,39,228669,0.0-9.0-8.0,17141,group1,yes,prosody_paired_samples/MaiyiY/literal_IR_window.wav,,1,second,11,window,Maiyi,modal,second,1,Male,Yes,4,29,No
395,99,audio-button-response,40,228769,0.0-9.0-9.0,17141,group1,yes,prosody_paired_samples/MaiyiY/IR_literal_door.wav,,1,first,4,door,Maiyi,modal,second,0,Male,Yes,4,29,No
396,5577,audio-button-response,41,234347,0.0-9.0-10.0,17141,group1,yes,prosody_paired_samples/MaiyiY/literal_IR_car.wav,,0,second,1,car,Maiyi,indirect,first,0,Male,Yes,4,29,No
397,5414,audio-button-response,42,239761,0.0-9.0-11.0,17141,group1,yes,prosody_paired_samples/MaiyiY/IR_literal_soup.wav,,0,first,9,soup,Maiyi,indirect,first,1,Male,Yes,4,29,No
398,54,audio-button-response,43,239815,0.0-10.0-0.0,17141,group1,yes,prosody_paired_samples/NimishP/IR_Literal_temp.wav,,0,first,12,temperature,Nimish,modal,first,1,Male,Yes,4,29,No
399,6229,audio-button-response,44,246046,0.0-10.0-1.0,17141,group1,yes,prosody_paired_samples/NimishP/Literal_IR_soup.wav,,1,second,9,soup,Nimish,indirect,second,1,Male,Yes,4,29,No
400,6231,audio-button-response,45,252278,0.0-10.0-2.0,17141,group1,yes,prosody_paired_samples/NimishP/IR_Literal_laptop.wav,,0,first,5,laptop,Nimish,indirect,first,1,Male,Yes,4,29,No
401,4611,audio-button-response,46,256889,0.0-10.0-3.0,17141,group1,yes,prosody_paired_samples/NimishP/Literal_IR_door.wav,,0,second,4,door,Nimish,modal,first,0,Male,Yes,4,29,No
402,5386,audio-button-response,47,262275,0.0-10.0-4.0,17141,group1,yes,prosody_paired_samples/NimishP/IR_Literal_car.wav,,0,first,1,car,Nimish,indirect,first,1,Male,Yes,4,29,No
403,4921,audio-button-response,48,267198,0.0-10.0-5.0,17141,group1,yes,prosody_paired_samples/NimishP/IR_Literal_phone.wav,,0,first,7,phone,Nimish,indirect,first,1,Male,Yes,4,29,No
404,3929,audio-button-response,49,271128,0.0-10.0-6.0,17141,group1,yes,prosody_paired_samples/NimishP/IR_Literal_Spanish.wav,,0,first,10,spanish,Nimish,modal,first,1,Male,Yes,4,29,No
405,5114,audio-button-response,50,276242,0.0-10.0-7.0,17141,group1,yes,prosody_paired_samples/NimishP/IR_Literal_piano.wav,,0,first,8,piano,Nimish,modal,first,1,Male,Yes,4,29,No
406,4995,audio-button-response,51,281237,0.0-10.0-8.0,17141,group1,yes,prosody_paired_samples/NimishP/Literal_IR_window.wav,,1,second,11,window,Nimish,modal,second,1,Male,Yes,4,29,No
407,5399,audio-button-response,52,286636,0.0-10.0-9.0,17141,group1,yes,prosody_paired_samples/NimishP/Literal_IR_office.wav,,1,second,6,office,Nimish,indirect,second,1,Male,Yes,4,29,No
408,4892,audio-button-response,53,291529,0.0-10.0-10.0,17141,group1,yes,prosody_paired_samples/NimishP/Literal_IR_box.wav,,0,second,3,box,Nimish,modal,first,0,Male,Yes,4,29,No
409,5257,audio-button-response,54,296786,0.0-10.0-11.0,17141,group1,yes,prosody_paired_samples/NimishP/Literal_IR_back.wav,,0,second,2,back,Nimish,indirect,first,0,Male,Yes,4,29,No
410,5794,audio-button-response,55,302580,0.0-11.0-0.0,17141,group1,yes,prosody_paired_samples/DannyK/literal_IR_box.wav,,0,second,3,box,Danny,modal,first,0,Male,Yes,4,29,No
411,3333,audio-button-response,56,305915,0.0-11.0-1.0,17141,group1,yes,prosody_paired_samples/DannyK/IR_literal_window.wav,,0,first,11,window,Danny,modal,first,1,Male,Yes,4,29,No
412,5241,audio-button-response,57,311157,0.0-11.0-2.0,17141,group1,yes,prosody_paired_samples/DannyK/IR_literal_phone.wav,,0,first,7,phone,Danny,indirect,first,1,Male,Yes,4,29,No
413,5441,audio-button-response,58,316599,0.0-11.0-3.0,17141,group1,yes,prosody_paired_samples/DannyK/literal_IR_car.wav,,0,second,1,car,Danny,indirect,first,0,Male,Yes,4,29,No
414,5561,audio-button-response,59,322161,0.0-11.0-4.0,17141,group1,yes,prosody_paired_samples/DannyK/literal_IR_back.wav,,1,second,2,back,Danny,indirect,second,1,Male,Yes,4,29,No
415,87,audio-button-response,60,322249,0.0-11.0-5.0,17141,group1,yes,prosody_paired_samples/DannyK/literal_IR_soup.wav,,1,second,9,soup,Danny,indirect,second,1,Male,Yes,4,29,No
416,5597,audio-button-response,61,327847,0.0-11.0-6.0,17141,group1,yes,prosody_paired_samples/DannyK/literal_IR_Spanish.wav,,0,second,10,spanish,Danny,modal,first,0,Male,Yes,4,29,No
417,5289,audio-button-response,62,333136,0.0-11.0-7.0,17141,group1,yes,prosody_paired_samples/DannyK/IR_literal_piano.wav,,1,first,8,piano,Danny,modal,second,0,Male,Yes,4,29,No
418,5706,audio-button-response,63,338843,0.0-11.0-8.0,17141,group1,yes,prosody_paired_samples/DannyK/IR_literal_laptop.wav,,0,first,5,laptop,Danny,indirect,first,1,Male,Yes,4,29,No
419,5651,audio-button-response,64,344495,0.0-11.0-9.0,17141,group1,yes,prosody_paired_samples/DannyK/IR_literal_office.wav,,0,first,6,office,Danny,indirect,first,1,Male,Yes,4,29,No
420,5327,audio-button-response,65,349823,0.0-11.0-10.0,17141,group1,yes,prosody_paired_samples/DannyK/literal_IR_door.wav,,1,second,4,door,Danny,modal,second,1,Male,Yes,4,29,No
421,5707,audio-button-response,66,355531,0.0-11.0-11.0,17141,group1,yes,prosody_paired_samples/DannyK/IR_literal_temp.wav,,1,first,12,temperature,Danny,modal,second,0,Male,Yes,4,29,No
422,13700,survey-text,67,369231,0.0-12.0,17141,group1,yes,,debrief,,,,,,,,0,Male,Yes,4,29,No
423,7428,survey-multi-choice,68,376664,0.0-13.0,17141,group1,yes,,demographic1,,,,,,,,0,Male,Yes,4,29,No
424,3691,survey-text,69,380357,0.0-14.0,17141,group1,yes,,age,,,,,,,,0,Male,Yes,4,29,No
425,8404,survey-text,70,388763,0.0-15.0,17141,group1,yes,,,,,,,,,,0,Male,Yes,4,29,No
426,26551,instructions,0,26552,0.0-0.0,1772,group3,yes,,,,,,,,,,0,Female,Yes,5,30,No
427,10534,external-html,1,37461,0.0-1.0,1772,group3,yes,,,,,,,,,,0,Female,Yes,5,30,No
428,2282,instructions,2,39743,0.0-2.0,1772,group3,yes,,,,,,,,,,0,Female,Yes,5,30,No
429,,video,3,48458,0.0-3.0,1772,group3,yes,"[""prosody_paired_samples/audio_calibration.mp4""]",calibration,,,,,,,,0,Female,Yes,5,30,No
430,2096,instructions,4,50555,0.0-4.0,1772,group3,yes,,,,,,,,,,0,Female,Yes,5,30,No
431,4415,audio-button-response,5,54973,0.0-5.0,1772,group3,yes,prosody_paired_samples/ears_audio_check.wav,test,2,,,,,,,0,Female,Yes,5,30,No
432,15134,instructions,6,71540,0.0-6.0-0.0,1772,group3,yes,,,,,,,,,,0,Female,Yes,5,30,No
433,6257,audio-button-response,7,77800,0.0-7.0-0.0,1772,group3,yes,prosody_paired_samples/NimishP/Literal_IR_window.wav,,1,second,11,window,Nimish,modal,second,1,Female,Yes,5,30,No
434,8883,audio-button-response,8,86684,0.0-7.0-1.0,1772,group3,yes,prosody_paired_samples/NimishP/Literal_IR_office.wav,,0,second,6,office,Nimish,indirect,first,0,Female,Yes,5,30,No
435,6279,audio-button-response,9,92964,0.0-7.0-2.0,1772,group3,yes,prosody_paired_samples/NimishP/IR_Literal_box.wav,,0,first,3,box,Nimish,modal,first,1,Female,Yes,5,30,No
436,6161,audio-button-response,10,99128,0.0-7.0-3.0,1772,group3,yes,prosody_paired_samples/NimishP/IR_Literal_temp.wav,,0,first,12,temperature,Nimish,modal,first,1,Female,Yes,5,30,No
437,6731,audio-button-response,11,105860,0.0-7.0-4.0,1772,group3,yes,prosody_paired_samples/NimishP/Literal_IR_car.wav,,0,second,1,car,Nimish,indirect,first,0,Female,Yes,5,30,No
438,7541,audio-button-response,12,113401,0.0-7.0-5.0,1772,group3,yes,prosody_paired_samples/NimishP/IR_Literal_phone.wav,,0,first,7,phone,Nimish,indirect,first,1,Female,Yes,5,30,No
439,8252,audio-button-response,13,121654,0.0-7.0-6.0,1772,group3,yes,prosody_paired_samples/NimishP/Literal_IR_back.wav,,1,second,2,back,Nimish,indirect,second,1,Female,Yes,5,30,No
440,5501,audio-button-response,14,127156,0.0-7.0-7.0,1772,group3,yes,prosody_paired_samples/NimishP/Literal_IR_door.wav,,1,second,4,door,Nimish,modal,second,1,Female,Yes,5,30,No
441,9696,audio-button-response,15,136853,0.0-7.0-8.0,1772,group3,yes,prosody_paired_samples/NimishP/IR_Literal_Spanish.wav,,1,first,10,spanish,Nimish,modal,second,0,Female,Yes,5,30,No
442,6672,audio-button-response,16,143526,0.0-7.0-9.0,1772,group3,yes,prosody_paired_samples/NimishP/Literal_IR_soup.wav,,0,second,9,soup,Nimish,indirect,first,0,Female,Yes,5,30,No
443,7496,audio-button-response,17,151024,0.0-7.0-10.0,1772,group3,yes,prosody_paired_samples/NimishP/IR_Literal_laptop.wav,,0,first,5,laptop,Nimish,indirect,first,1,Female,Yes,5,30,No
444,6247,audio-button-response,18,157272,0.0-7.0-11.0,1772,group3,yes,prosody_paired_samples/NimishP/IR_Literal_piano.wav,,1,first,8,piano,Nimish,modal,second,0,Female,Yes,5,30,No
445,7945,audio-button-response,19,165217,0.0-8.0-0.0,1772,group3,yes,prosody_paired_samples/DannyK/IR_literal_laptop.wav,,0,first,5,laptop,Danny,indirect,first,1,Female,Yes,5,30,No
446,7753,audio-button-response,20,172972,0.0-8.0-1.0,1772,group3,yes,prosody_paired_samples/DannyK/literal_IR_door.wav,,1,second,4,door,Danny,modal,second,1,Female,Yes,5,30,No
447,5742,audio-button-response,21,178715,0.0-8.0-2.0,1772,group3,yes,prosody_paired_samples/DannyK/IR_literal_window.wav,,0,first,11,window,Danny,modal,first,1,Female,Yes,5,30,No
448,6343,audio-button-response,22,185058,0.0-8.0-3.0,1772,group3,yes,prosody_paired_samples/DannyK/IR_literal_soup.wav,,1,first,9,soup,Danny,indirect,second,0,Female,Yes,5,30,No
449,5895,audio-button-response,23,190956,0.0-8.0-4.0,1772,group3,yes,prosody_paired_samples/DannyK/literal_IR_Spanish.wav,,0,second,10,spanish,Danny,modal,first,0,Female,Yes,5,30,No
450,6108,audio-button-response,24,197065,0.0-8.0-5.0,1772,group3,yes,prosody_paired_samples/DannyK/literal_IR_office.wav,,0,second,6,office,Danny,indirect,first,0,Female,Yes,5,30,No
451,5367,audio-button-response,25,202433,0.0-8.0-6.0,1772,group3,yes,prosody_paired_samples/DannyK/literal_IR_piano.wav,,1,second,8,piano,Danny,modal,second,1,Female,Yes,5,30,No
452,6129,audio-button-response,26,208565,0.0-8.0-7.0,1772,group3,yes,prosody_paired_samples/DannyK/IR_literal_box.wav,,0,first,3,box,Danny,modal,first,1,Female,Yes,5,30,No
453,6417,audio-button-response,27,214982,0.0-8.0-8.0,1772,group3,yes,prosody_paired_samples/DannyK/literal_IR_temp.wav,,1,second,12,temperature,Danny,modal,second,1,Female,Yes,5,30,No
454,5558,audio-button-response,28,220542,0.0-8.0-9.0,1772,group3,yes,prosody_paired_samples/DannyK/IR_literal_car.wav,,0,first,1,car,Danny,indirect,first,1,Female,Yes,5,30,No
455,7981,audio-button-response,29,228526,0.0-8.0-10.0,1772,group3,yes,prosody_paired_samples/DannyK/IR_literal_back.wav,,0,first,2,back,Danny,indirect,first,1,Female,Yes,5,30,No
456,7406,audio-button-response,30,235933,0.0-8.0-11.0,1772,group3,yes,prosody_paired_samples/DannyK/literal_IR_phone.wav,,0,second,7,phone,Danny,indirect,first,0,Female,Yes,5,30,No
457,7517,audio-button-response,31,243450,0.0-9.0-0.0,1772,group3,yes,prosody_paired_samples/KatieS/IR_Literal_temp.wav,,0,first,12,temperature,Katie,modal,first,1,Female,Yes,5,30,No
458,8066,audio-button-response,32,251518,0.0-9.0-1.0,1772,group3,yes,prosody_paired_samples/KatieS/Literal_IR_office.wav,,1,second,6,office,Katie,indirect,second,1,Female,Yes,5,30,No
459,8257,audio-button-response,33,259776,0.0-9.0-2.0,1772,group3,yes,prosody_paired_samples/KatieS/Literal_IR_soup.wav,,1,second,9,soup,Katie,indirect,second,1,Female,Yes,5,30,No
460,7347,audio-button-response,34,267126,0.0-9.0-3.0,1772,group3,yes,prosody_paired_samples/KatieS/Literal_IR_door.wav,,1,second,4,door,Katie,modal,second,1,Female,Yes,5,30,No
461,6787,audio-button-response,35,273915,0.0-9.0-4.0,1772,group3,yes,prosody_paired_samples/KatieS/IR_Literal_window.wav,,0,first,11,window,Katie,modal,first,1,Female,Yes,5,30,No
462,7150,audio-button-response,36,281065,0.0-9.0-5.0,1772,group3,yes,prosody_paired_samples/KatieS/Literal_IR_laptop.wav,,1,second,5,laptop,Katie,indirect,second,1,Female,Yes,5,30,No
463,7801,audio-button-response,37,288869,0.0-9.0-6.0,1772,group3,yes,prosody_paired_samples/KatieS/Literal_IR_car.wav,,1,second,1,car,Katie,indirect,second,1,Female,Yes,5,30,No
464,7523,audio-button-response,38,296392,0.0-9.0-7.0,1772,group3,yes,prosody_paired_samples/KatieS/IR_Literal_phone.wav,,0,first,7,phone,Katie,indirect,first,1,Female,Yes,5,30,No
465,8850,audio-button-response,39,305245,0.0-9.0-8.0,1772,group3,yes,prosody_paired_samples/KatieS/IR_Literal_back.wav,,0,first,2,back,Katie,indirect,first,1,Female,Yes,5,30,No
466,9681,audio-button-response,40,314927,0.0-9.0-9.0,1772,group3,yes,prosody_paired_samples/KatieS/IR_Literal_piano.wav,,0,first,8,piano,Katie,modal,first,1,Female,Yes,5,30,No
467,7038,audio-button-response,41,321967,0.0-9.0-10.0,1772,group3,yes,prosody_paired_samples/KatieS/IR_Literal_Spanish.wav,,0,first,10,spanish,Katie,modal,first,1,Female,Yes,5,30,No
468,6313,audio-button-response,42,328281,0.0-9.0-11.0,1772,group3,yes,prosody_paired_samples/KatieS/Literal_IR_box.wav,,1,second,3,box,Katie,modal,second,1,Female,Yes,5,30,No
469,6783,audio-button-response,43,335064,0.0-10.0-0.0,1772,group3,yes,prosody_paired_samples/MaiyiY/literal_IR_door.wav,,1,second,4,door,Maiyi,modal,second,1,Female,Yes,5,30,No
470,7273,audio-button-response,44,342339,0.0-10.0-1.0,1772,group3,yes,prosody_paired_samples/MaiyiY/literal_IR_car.wav,,1,second,1,car,Maiyi,indirect,second,1,Female,Yes,5,30,No
471,8763,audio-button-response,45,351104,0.0-10.0-2.0,1772,group3,yes,prosody_paired_samples/MaiyiY/literal_IR_piano.wav,,1,second,8,piano,Maiyi,modal,second,1,Female,Yes,5,30,No
472,6050,audio-button-response,46,357154,0.0-10.0-3.0,1772,group3,yes,prosody_paired_samples/MaiyiY/IR_literal_Spanish.wav,,0,first,10,spanish,Maiyi,modal,first,1,Female,Yes,5,30,No
473,6854,audio-button-response,47,364010,0.0-10.0-4.0,1772,group3,yes,prosody_paired_samples/MaiyiY/literal_IR_window.wav,,0,second,11,window,Maiyi,modal,first,0,Female,Yes,5,30,No
474,6597,audio-button-response,48,370610,0.0-10.0-5.0,1772,group3,yes,prosody_paired_samples/MaiyiY/IR_literal_temp.wav,,0,first,12,temperature,Maiyi,modal,first,1,Female,Yes,5,30,No
475,5727,audio-button-response,49,376338,0.0-10.0-6.0,1772,group3,yes,prosody_paired_samples/MaiyiY/IR_literal_box.wav,,0,first,3,box,Maiyi,modal,first,1,Female,Yes,5,30,No
476,7925,audio-button-response,50,384264,0.0-10.0-7.0,1772,group3,yes,prosody_paired_samples/MaiyiY/literal_IR_phone.wav,,1,second,7,phone,Maiyi,indirect,second,1,Female,Yes,5,30,No
477,7244,audio-button-response,51,391509,0.0-10.0-8.0,1772,group3,yes,prosody_paired_samples/MaiyiY/IR_literal_soup.wav,,1,first,9,soup,Maiyi,indirect,second,0,Female,Yes,5,30,No
478,6166,audio-button-response,52,397675,0.0-10.0-9.0,1772,group3,yes,prosody_paired_samples/MaiyiY/IR_literal_back.wav,,0,first,2,back,Maiyi,indirect,first,1,Female,Yes,5,30,No
479,6188,audio-button-response,53,403865,0.0-10.0-10.0,1772,group3,yes,prosody_paired_samples/MaiyiY/IR_literal_office.wav,,0,first,6,office,Maiyi,indirect,first,1,Female,Yes,5,30,No
480,7136,audio-button-response,54,411005,0.0-10.0-11.0,1772,group3,yes,prosody_paired_samples/MaiyiY/literal_IR_laptop.wav,,0,second,5,laptop,Maiyi,indirect,first,0,Female,Yes,5,30,No
481,6546,audio-button-response,55,417554,0.0-11.0-0.0,1772,group3,yes,prosody_paired_samples/KarenL/literal_IR_laptop.wav,,1,second,5,laptop,Karen,indirect,second,1,Female,Yes,5,30,No
482,6517,audio-button-response,56,424071,0.0-11.0-1.0,1772,group3,yes,prosody_paired_samples/KarenL/IR_literal_temp.wav,,0,first,12,temperature,Karen,modal,first,1,Female,Yes,5,30,No
483,7396,audio-button-response,57,431468,0.0-11.0-2.0,1772,group3,yes,prosody_paired_samples/KarenL/IR_literal_window.wav,,1,first,11,window,Karen,modal,second,0,Female,Yes,5,30,No
484,771,audio-button-response,58,432239,0.0-11.0-3.0,1772,group3,yes,prosody_paired_samples/KarenL/IR_literal_car.wav,,1,first,1,car,Karen,indirect,second,0,Female,Yes,5,30,No
485,6005,audio-button-response,59,438246,0.0-11.0-4.0,1772,group3,yes,prosody_paired_samples/KarenL/IR_literal_door.wav,,0,first,4,door,Karen,modal,first,1,Female,Yes,5,30,No
486,5911,audio-button-response,60,444157,0.0-11.0-5.0,1772,group3,yes,prosody_paired_samples/KarenL/literal_IR_back.wav,,1,second,2,back,Karen,indirect,second,1,Female,Yes,5,30,No
487,6731,audio-button-response,61,450890,0.0-11.0-6.0,1772,group3,yes,prosody_paired_samples/KarenL/literal_IR_box.wav,,1,second,3,box,Karen,modal,second,1,Female,Yes,5,30,No
488,6618,audio-button-response,62,457509,0.0-11.0-7.0,1772,group3,yes,prosody_paired_samples/KarenL/IR_literal_soup.wav,,0,first,9,soup,Karen,indirect,first,1,Female,Yes,5,30,No
489,6958,audio-button-response,63,464468,0.0-11.0-8.0,1772,group3,yes,prosody_paired_samples/KarenL/IR_literal_phone.wav,,0,first,7,phone,Karen,indirect,first,1,Female,Yes,5,30,No
490,7401,audio-button-response,64,471872,0.0-11.0-9.0,1772,group3,yes,prosody_paired_samples/KarenL/literal_IR_piano.wav,,0,second,8,piano,Karen,modal,first,0,Female,Yes,5,30,No
491,6221,audio-button-response,65,478094,0.0-11.0-10.0,1772,group3,yes,prosody_paired_samples/KarenL/literal_IR_office.wav,,1,second,6,office,Karen,indirect,second,1,Female,Yes,5,30,No
492,6297,audio-button-response,66,484393,0.0-11.0-11.0,1772,group3,yes,prosody_paired_samples/KarenL/literal_IR_Spanish.wav,,1,second,10,spanish,Karen,modal,second,1,Female,Yes,5,30,No
493,18733,survey-text,67,503128,0.0-12.0,1772,group3,yes,,debrief,,,,,,,,0,Female,Yes,5,30,No
494,6779,survey-multi-choice,68,509917,0.0-13.0,1772,group3,yes,,demographic1,,,,,,,,0,Female,Yes,5,30,No
495,4009,survey-text,69,513932,0.0-14.0,1772,group3,yes,,age,,,,,,,,0,Female,Yes,5,30,No
496,7773,survey-text,70,521705,0.0-15.0,1772,group3,yes,,,,,,,,,,0,Female,Yes,5,30,No
497,1925,instructions,0,1926,0.0-0.0,18450,group4,yes,,,,,,,,,,0,Male,Yes,5,29,No
498,18365,external-html,1,20300,0.0-1.0,18450,group4,yes,,,,,,,,,,0,Male,Yes,5,29,No
499,2082,instructions,2,22382,0.0-2.0,18450,group4,yes,,,,,,,,,,0,Male,Yes,5,29,No
500,,video,3,30798,0.0-3.0,18450,group4,yes,"[""prosody_paired_samples/audio_calibration.mp4""]",calibration,,,,,,,,0,Male,Yes,5,29,No
501,4090,instructions,4,34888,0.0-4.0,18450,group4,yes,,,,,,,,,,0,Male,Yes,5,29,No
502,5418,audio-button-response,5,40308,0.0-5.0,18450,group4,yes,prosody_paired_samples/ears_audio_check.wav,test,2,,,,,,,0,Male,Yes,5,29,No
503,25018,instructions,6,66728,0.0-6.0-0.0,18450,group4,yes,,,,,,,,,,0,Male,Yes,5,29,No
504,8849,audio-button-response,7,75578,0.0-7.0-0.0,18450,group4,yes,prosody_paired_samples/KatieS/IR_Literal_back.wav,,0,first,2,back,Katie,indirect,first,1,Male,Yes,5,29,No
505,7215,audio-button-response,8,82793,0.0-7.0-1.0,18450,group4,yes,prosody_paired_samples/KatieS/Literal_IR_box.wav,,1,second,3,box,Katie,modal,second,1,Male,Yes,5,29,No
506,6300,audio-button-response,9,89094,0.0-7.0-2.0,18450,group4,yes,prosody_paired_samples/KatieS/Literal_IR_Spanish.wav,,1,second,10,spanish,Katie,modal,second,1,Male,Yes,5,29,No
507,5769,audio-button-response,10,94863,0.0-7.0-3.0,18450,group4,yes,prosody_paired_samples/KatieS/IR_Literal_soup.wav,,0,first,9,soup,Katie,indirect,first,1,Male,Yes,5,29,No
508,8192,audio-button-response,11,103055,0.0-7.0-4.0,18450,group4,yes,prosody_paired_samples/KatieS/IR_Literal_temp.wav,,0,first,12,temperature,Katie,modal,first,1,Male,Yes,5,29,No
509,6496,audio-button-response,12,109551,0.0-7.0-5.0,18450,group4,yes,prosody_paired_samples/KatieS/Literal_IR_office.wav,,1,second,6,office,Katie,indirect,second,1,Male,Yes,5,29,No
510,6727,audio-button-response,13,116279,0.0-7.0-6.0,18450,group4,yes,prosody_paired_samples/KatieS/Literal_IR_piano.wav,,0,second,8,piano,Katie,modal,first,0,Male,Yes,5,29,No
511,5848,audio-button-response,14,122127,0.0-7.0-7.0,18450,group4,yes,prosody_paired_samples/KatieS/Literal_IR_door.wav,,0,second,4,door,Katie,modal,first,0,Male,Yes,5,29,No
512,6277,audio-button-response,15,128405,0.0-7.0-8.0,18450,group4,yes,prosody_paired_samples/KatieS/IR_Literal_laptop.wav,,0,first,5,laptop,Katie,indirect,first,1,Male,Yes,5,29,No
513,7998,audio-button-response,16,136403,0.0-7.0-9.0,18450,group4,yes,prosody_paired_samples/KatieS/Literal_IR_car.wav,,1,second,1,car,Katie,indirect,second,1,Male,Yes,5,29,No
514,6119,audio-button-response,17,142523,0.0-7.0-10.0,18450,group4,yes,prosody_paired_samples/KatieS/IR_Literal_window.wav,,0,first,11,window,Katie,modal,first,1,Male,Yes,5,29,No
515,6619,audio-button-response,18,149143,0.0-7.0-11.0,18450,group4,yes,prosody_paired_samples/KatieS/IR_Literal_phone.wav,,0,first,7,phone,Katie,indirect,first,1,Male,Yes,5,29,No
516,6781,audio-button-response,19,155925,0.0-8.0-0.0,18450,group4,yes,prosody_paired_samples/NimishP/IR_Literal_soup.wav,,0,first,9,soup,Nimish,indirect,first,1,Male,Yes,5,29,No
517,6097,audio-button-response,20,162023,0.0-8.0-1.0,18450,group4,yes,prosody_paired_samples/NimishP/Literal_IR_door.wav,,0,second,4,door,Nimish,modal,first,0,Male,Yes,5,29,No
518,5986,audio-button-response,21,168010,0.0-8.0-2.0,18450,group4,yes,prosody_paired_samples/NimishP/Literal_IR_car.wav,,0,second,1,car,Nimish,indirect,first,0,Male,Yes,5,29,No
519,6081,audio-button-response,22,174092,0.0-8.0-3.0,18450,group4,yes,prosody_paired_samples/NimishP/IR_Literal_temp.wav,,0,first,12,temperature,Nimish,modal,first,1,Male,Yes,5,29,No
520,5848,audio-button-response,23,179941,0.0-8.0-4.0,18450,group4,yes,prosody_paired_samples/NimishP/Literal_IR_box.wav,,0,second,3,box,Nimish,modal,first,0,Male,Yes,5,29,No
521,5847,audio-button-response,24,185788,0.0-8.0-5.0,18450,group4,yes,prosody_paired_samples/NimishP/Literal_IR_Spanish.wav,,0,second,10,spanish,Nimish,modal,first,0,Male,Yes,5,29,No
522,6096,audio-button-response,25,191886,0.0-8.0-6.0,18450,group4,yes,prosody_paired_samples/NimishP/IR_Literal_laptop.wav,,0,first,5,laptop,Nimish,indirect,first,1,Male,Yes,5,29,No
523,5879,audio-button-response,26,197765,0.0-8.0-7.0,18450,group4,yes,prosody_paired_samples/NimishP/Literal_IR_back.wav,,0,second,2,back,Nimish,indirect,first,0,Male,Yes,5,29,No
524,5995,audio-button-response,27,203760,0.0-8.0-8.0,18450,group4,yes,prosody_paired_samples/NimishP/IR_Literal_window.wav,,0,first,11,window,Nimish,modal,first,1,Male,Yes,5,29,No
525,5506,audio-button-response,28,209266,0.0-8.0-9.0,18450,group4,yes,prosody_paired_samples/NimishP/IR_Literal_office.wav,,0,first,6,office,Nimish,indirect,first,1,Male,Yes,5,29,No
526,7178,audio-button-response,29,216445,0.0-8.0-10.0,18450,group4,yes,prosody_paired_samples/NimishP/IR_Literal_phone.wav,,0,first,7,phone,Nimish,indirect,first,1,Male,Yes,5,29,No
527,6485,audio-button-response,30,222931,0.0-8.0-11.0,18450,group4,yes,prosody_paired_samples/NimishP/Literal_IR_piano.wav,,1,second,8,piano,Nimish,modal,second,1,Male,Yes,5,29,No
528,5769,audio-button-response,31,228700,0.0-9.0-0.0,18450,group4,yes,prosody_paired_samples/MaiyiY/literal_IR_door.wav,,1,second,4,door,Maiyi,modal,second,1,Male,Yes,5,29,No
529,5534,audio-button-response,32,234234,0.0-9.0-1.0,18450,group4,yes,prosody_paired_samples/MaiyiY/IR_literal_phone.wav,,0,first,7,phone,Maiyi,indirect,first,1,Male,Yes,5,29,No
530,6831,audio-button-response,33,241065,0.0-9.0-2.0,18450,group4,yes,prosody_paired_samples/MaiyiY/literal_IR_soup.wav,,1,second,9,soup,Maiyi,indirect,second,1,Male,Yes,5,29,No
531,4855,audio-button-response,34,245921,0.0-9.0-3.0,18450,group4,yes,prosody_paired_samples/MaiyiY/IR_literal_piano.wav,,0,first,8,piano,Maiyi,modal,first,1,Male,Yes,5,29,No
532,5566,audio-button-response,35,251487,0.0-9.0-4.0,18450,group4,yes,prosody_paired_samples/MaiyiY/IR_literal_window.wav,,0,first,11,window,Maiyi,modal,first,1,Male,Yes,5,29,No
533,6392,audio-button-response,36,257879,0.0-9.0-5.0,18450,group4,yes,prosody_paired_samples/MaiyiY/IR_literal_Spanish.wav,,0,first,10,spanish,Maiyi,modal,first,1,Male,Yes,5,29,No
534,5909,audio-button-response,37,263788,0.0-9.0-6.0,18450,group4,yes,prosody_paired_samples/MaiyiY/IR_literal_box.wav,,0,first,3,box,Maiyi,modal,first,1,Male,Yes,5,29,No
535,6291,audio-button-response,38,270079,0.0-9.0-7.0,18450,group4,yes,prosody_paired_samples/MaiyiY/literal_IR_laptop.wav,,0,second,5,laptop,Maiyi,indirect,first,0,Male,Yes,5,29,No
536,7373,audio-button-response,39,277452,0.0-9.0-8.0,18450,group4,yes,prosody_paired_samples/MaiyiY/literal_IR_back.wav,,0,second,2,back,Maiyi,indirect,first,0,Male,Yes,5,29,No
537,6681,audio-button-response,40,284134,0.0-9.0-9.0,18450,group4,yes,prosody_paired_samples/MaiyiY/literal_IR_car.wav,,1,second,1,car,Maiyi,indirect,second,1,Male,Yes,5,29,No
538,5504,audio-button-response,41,289638,0.0-9.0-10.0,18450,group4,yes,prosody_paired_samples/MaiyiY/literal_IR_office.wav,,1,second,6,office,Maiyi,indirect,second,1,Male,Yes,5,29,No
539,5582,audio-button-response,42,295221,0.0-9.0-11.0,18450,group4,yes,prosody_paired_samples/MaiyiY/IR_literal_temp.wav,,0,first,12,temperature,Maiyi,modal,first,1,Male,Yes,5,29,No
540,6105,audio-button-response,43,301328,0.0-10.0-0.0,18450,group4,yes,prosody_paired_samples/DannyK/literal_IR_laptop.wav,,0,second,5,laptop,Danny,indirect,first,0,Male,Yes,5,29,No
541,5430,audio-button-response,44,306759,0.0-10.0-1.0,18450,group4,yes,prosody_paired_samples/DannyK/literal_IR_window.wav,,1,second,11,window,Danny,modal,second,1,Male,Yes,5,29,No
542,5511,audio-button-response,45,312270,0.0-10.0-2.0,18450,group4,yes,prosody_paired_samples/DannyK/IR_literal_box.wav,,0,first,3,box,Danny,modal,first,1,Male,Yes,5,29,No
543,5309,audio-button-response,46,317580,0.0-10.0-3.0,18450,group4,yes,prosody_paired_samples/DannyK/IR_literal_door.wav,,0,first,4,door,Danny,modal,first,1,Male,Yes,5,29,No
544,5506,audio-button-response,47,323086,0.0-10.0-4.0,18450,group4,yes,prosody_paired_samples/DannyK/IR_literal_car.wav,,0,first,1,car,Danny,indirect,first,1,Male,Yes,5,29,No
545,5722,audio-button-response,48,328809,0.0-10.0-5.0,18450,group4,yes,prosody_paired_samples/DannyK/IR_literal_soup.wav,,0,first,9,soup,Danny,indirect,first,1,Male,Yes,5,29,No
546,5123,audio-button-response,49,333932,0.0-10.0-6.0,18450,group4,yes,prosody_paired_samples/DannyK/literal_IR_phone.wav,,1,second,7,phone,Danny,indirect,second,1,Male,Yes,5,29,No
547,5950,audio-button-response,50,339882,0.0-10.0-7.0,18450,group4,yes,prosody_paired_samples/DannyK/literal_IR_Spanish.wav,,0,second,10,spanish,Danny,modal,first,0,Male,Yes,5,29,No
548,5622,audio-button-response,51,345504,0.0-10.0-8.0,18450,group4,yes,prosody_paired_samples/DannyK/literal_IR_temp.wav,,0,second,12,temperature,Danny,modal,first,0,Male,Yes,5,29,No
549,6050,audio-button-response,52,351554,0.0-10.0-9.0,18450,group4,yes,prosody_paired_samples/DannyK/IR_literal_piano.wav,,0,first,8,piano,Danny,modal,first,1,Male,Yes,5,29,No
550,6749,audio-button-response,53,358303,0.0-10.0-10.0,18450,group4,yes,prosody_paired_samples/DannyK/IR_literal_back.wav,,1,first,2,back,Danny,indirect,second,0,Male,Yes,5,29,No
551,5623,audio-button-response,54,363926,0.0-10.0-11.0,18450,group4,yes,prosody_paired_samples/DannyK/literal_IR_office.wav,,0,second,6,office,Danny,indirect,first,0,Male,Yes,5,29,No
552,5744,audio-button-response,55,369671,0.0-11.0-0.0,18450,group4,yes,prosody_paired_samples/KarenL/IR_literal_soup.wav,,1,first,9,soup,Karen,indirect,second,0,Male,Yes,5,29,No
553,6649,audio-button-response,56,376321,0.0-11.0-1.0,18450,group4,yes,prosody_paired_samples/KarenL/IR_literal_temp.wav,,0,first,12,temperature,Karen,modal,first,1,Male,Yes,5,29,No
554,4709,audio-button-response,57,381031,0.0-11.0-2.0,18450,group4,yes,prosody_paired_samples/KarenL/literal_IR_door.wav,,0,second,4,door,Karen,modal,first,0,Male,Yes,5,29,No
555,7077,audio-button-response,58,388109,0.0-11.0-3.0,18450,group4,yes,prosody_paired_samples/KarenL/literal_IR_Spanish.wav,,0,second,10,spanish,Karen,modal,first,0,Male,Yes,5,29,No
556,5917,audio-button-response,59,394027,0.0-11.0-4.0,18450,group4,yes,prosody_paired_samples/KarenL/literal_IR_piano.wav,,0,second,8,piano,Karen,modal,first,0,Male,Yes,5,29,No
557,5481,audio-button-response,60,399508,0.0-11.0-5.0,18450,group4,yes,prosody_paired_samples/KarenL/literal_IR_back.wav,,1,second,2,back,Karen,indirect,second,1,Male,Yes,5,29,No
558,5939,audio-button-response,61,405449,0.0-11.0-6.0,18450,group4,yes,prosody_paired_samples/KarenL/IR_literal_car.wav,,0,first,1,car,Karen,indirect,first,1,Male,Yes,5,29,No
559,5557,audio-button-response,62,411006,0.0-11.0-7.0,18450,group4,yes,prosody_paired_samples/KarenL/IR_literal_window.wav,,0,first,11,window,Karen,modal,first,1,Male,Yes,5,29,No
560,5976,audio-button-response,63,416986,0.0-11.0-8.0,18450,group4,yes,prosody_paired_samples/KarenL/IR_literal_office.wav,,1,first,6,office,Karen,indirect,second,0,Male,Yes,5,29,No
561,5558,audio-button-response,64,422546,0.0-11.0-9.0,18450,group4,yes,prosody_paired_samples/KarenL/IR_literal_phone.wav,,0,first,7,phone,Karen,indirect,first,1,Male,Yes,5,29,No
562,5481,audio-button-response,65,428028,0.0-11.0-10.0,18450,group4,yes,prosody_paired_samples/KarenL/literal_IR_laptop.wav,,1,second,5,laptop,Karen,indirect,second,1,Male,Yes,5,29,No
563,5765,audio-button-response,66,433793,0.0-11.0-11.0,18450,group4,yes,prosody_paired_samples/KarenL/literal_IR_box.wav,,0,second,3,box,Karen,modal,first,0,Male,Yes,5,29,No
564,25432,survey-text,67,459227,0.0-12.0,18450,group4,yes,,debrief,,,,,,,,0,Male,Yes,5,29,No
565,12251,survey-multi-choice,68,471483,0.0-13.0,18450,group4,yes,,demographic1,,,,,,,,0,Male,Yes,5,29,No
566,3057,survey-text,69,474542,0.0-14.0,18450,group4,yes,,age,,,,,,,,0,Male,Yes,5,29,No
567,19201,survey-text,70,493744,0.0-15.0,18450,group4,yes,,,,,,,,,,0,Male,Yes,5,29,No
568,6906,instructions,0,6907,0.0-0.0,18646,group2,yes,,,,,,,,,,0,Male,Yes,1,60,No
569,4365,external-html,1,11574,0.0-1.0,18646,group2,yes,,,,,,,,,,0,Male,Yes,1,60,No
570,4227,instructions,2,15803,0.0-2.0,18646,group2,yes,,,,,,,,,,0,Male,Yes,1,60,No
571,,video,3,24621,0.0-3.0,18646,group2,yes,"[""prosody_paired_samples/audio_calibration.mp4""]",calibration,,,,,,,,0,Male,Yes,1,60,No
572,32861,instructions,4,57483,0.0-4.0,18646,group2,yes,,,,,,,,,,0,Male,Yes,1,60,No
573,3880,audio-button-response,5,61363,0.0-5.0,18646,group2,yes,prosody_paired_samples/ears_audio_check.wav,test,2,,,,,,,0,Male,Yes,1,60,No
574,30824,instructions,6,93971,0.0-6.0-0.0,18646,group2,yes,,,,,,,,,,0,Male,Yes,1,60,No
575,16207,audio-button-response,7,110179,0.0-7.0-0.0,18646,group2,yes,prosody_paired_samples/DannyK/IR_literal_car.wav,,0,first,1,car,Danny,indirect,first,1,Male,Yes,1,60,No
576,18823,audio-button-response,8,129003,0.0-7.0-1.0,18646,group2,yes,prosody_paired_samples/DannyK/literal_IR_window.wav,,1,second,11,window,Danny,modal,second,1,Male,Yes,1,60,No
577,11648,audio-button-response,9,140651,0.0-7.0-2.0,18646,group2,yes,prosody_paired_samples/DannyK/IR_literal_soup.wav,,0,first,9,soup,Danny,indirect,first,1,Male,Yes,1,60,No
578,10808,audio-button-response,10,151459,0.0-7.0-3.0,18646,group2,yes,prosody_paired_samples/DannyK/literal_IR_office.wav,,0,second,6,office,Danny,indirect,first,0,Male,Yes,1,60,No
579,11591,audio-button-response,11,163051,0.0-7.0-4.0,18646,group2,yes,prosody_paired_samples/DannyK/literal_IR_door.wav,,1,second,4,door,Danny,modal,second,1,Male,Yes,1,60,No
580,12592,audio-button-response,12,175643,0.0-7.0-5.0,18646,group2,yes,prosody_paired_samples/DannyK/literal_IR_temp.wav,,0,second,12,temperature,Danny,modal,first,0,Male,Yes,1,60,No
581,15727,audio-button-response,13,191370,0.0-7.0-6.0,18646,group2,yes,prosody_paired_samples/DannyK/literal_IR_phone.wav,,0,second,7,phone,Danny,indirect,first,0,Male,Yes,1,60,No
582,12224,audio-button-response,14,203594,0.0-7.0-7.0,18646,group2,yes,prosody_paired_samples/DannyK/literal_IR_box.wav,,1,second,3,box,Danny,modal,second,1,Male,Yes,1,60,No
583,11584,audio-button-response,15,215178,0.0-7.0-8.0,18646,group2,yes,prosody_paired_samples/DannyK/IR_literal_back.wav,,0,first,2,back,Danny,indirect,first,1,Male,Yes,1,60,No
584,8088,audio-button-response,16,223267,0.0-7.0-9.0,18646,group2,yes,prosody_paired_samples/DannyK/IR_literal_Spanish.wav,,0,first,10,spanish,Danny,modal,first,1,Male,Yes,1,60,No
585,9519,audio-button-response,17,232786,0.0-7.0-10.0,18646,group2,yes,prosody_paired_samples/DannyK/IR_literal_laptop.wav,,0,first,5,laptop,Danny,indirect,first,1,Male,Yes,1,60,No
586,9096,audio-button-response,18,241882,0.0-7.0-11.0,18646,group2,yes,prosody_paired_samples/DannyK/IR_literal_piano.wav,,0,first,8,piano,Danny,modal,first,1,Male,Yes,1,60,No
587,8512,audio-button-response,19,250395,0.0-8.0-0.0,18646,group2,yes,prosody_paired_samples/KatieS/IR_Literal_door.wav,,0,first,4,door,Katie,modal,first,1,Male,Yes,1,60,No
588,6151,audio-button-response,20,256546,0.0-8.0-1.0,18646,group2,yes,prosody_paired_samples/KatieS/Literal_IR_window.wav,,1,second,11,window,Katie,modal,second,1,Male,Yes,1,60,No
589,9728,audio-button-response,21,266274,0.0-8.0-2.0,18646,group2,yes,prosody_paired_samples/KatieS/Literal_IR_soup.wav,,1,second,9,soup,Katie,indirect,second,1,Male,Yes,1,60,No
590,5272,audio-button-response,22,271546,0.0-8.0-3.0,18646,group2,yes,prosody_paired_samples/KatieS/IR_Literal_box.wav,,0,first,3,box,Katie,modal,first,1,Male,Yes,1,60,No
591,15655,audio-button-response,23,287202,0.0-8.0-4.0,18646,group2,yes,prosody_paired_samples/KatieS/IR_Literal_car.wav,,0,first,1,car,Katie,indirect,first,1,Male,Yes,1,60,No
592,10751,audio-button-response,24,297954,0.0-8.0-5.0,18646,group2,yes,prosody_paired_samples/KatieS/Literal_IR_back.wav,,0,second,2,back,Katie,indirect,first,0,Male,Yes,1,60,No
593,7647,audio-button-response,25,305602,0.0-8.0-6.0,18646,group2,yes,prosody_paired_samples/KatieS/Literal_IR_laptop.wav,,1,second,5,laptop,Katie,indirect,second,1,Male,Yes,1,60,No
594,11248,audio-button-response,26,316851,0.0-8.0-7.0,18646,group2,yes,prosody_paired_samples/KatieS/IR_Literal_office.wav,,0,first,6,office,Katie,indirect,first,1,Male,Yes,1,60,No
595,7832,audio-button-response,27,324683,0.0-8.0-8.0,18646,group2,yes,prosody_paired_samples/KatieS/Literal_IR_phone.wav,,1,second,7,phone,Katie,indirect,second,1,Male,Yes,1,60,No
596,7599,audio-button-response,28,332283,0.0-8.0-9.0,18646,group2,yes,prosody_paired_samples/KatieS/IR_Literal_Spanish.wav,,0,first,10,spanish,Katie,modal,first,1,Male,Yes,1,60,No
